ax,ay,az,gyro_x,gyro_y,gyro_z,label
0.02197266,-0.03173828,-0.99902344,0.,0.,0.,0
0.02148438,-0.03222656,-1.,0.,0.,0.,0
0.02148438,-0.03320312,-1.00195312,0.,0.,0.,0
0.02099609,-0.03222656,-1.00048828,0.,0.,0.,0
0.02099609,-0.03222656,-1.00048828,0.,0.,0.,0
0.02001953,-0.03271484,-0.99902344,0.,0.,0.,0
0.02246094,-0.03173828,-1.00048828,0.,0.,0.,0
0.02050781,-0.03173828,-1.00048828,0.,0.,0.,0
0.02099609,-0.03320312,-1.,0.,0.,0.,0
0.02001953,-0.03369141,-1.00146484,0.,0.,0.,0
0.02099609,-0.03369141,-1.00195312,0.,0.,0.,0
0.02197266,-0.03222656,-1.00244141,0.,0.,0.,0
0.02246094,-0.03173828,-1.,0.,0.,0.,0
0.02050781,-0.03076172,-0.99804688,0.,0.,0.,0
0.02148438,-0.02978516,-1.,0.,0.,0.,0
0.02197266,-0.03027344,-1.,0.,0.,0.,0
0.02148438,-0.03466797,-1.00097656,0.,0.,0.,0
0.02294922,-0.03369141,-1.00292969,0.,0.,0.,0
0.02050781,-0.03417969,-1.00146484,0.,0.,0.,0
0.02050781,-0.03417969,-0.99951172,0.,0.,0.,0
0.02294922,-0.03125,-1.00292969,0.,0.,0.,0
0.02392578,-0.02978516,-0.99755859,0.,0.,0.,0
0.0234375,-0.03173828,-1.00048828,0.,0.,0.,0
0.02246094,-0.03515625,-1.00439453,0.,0.,0.,0
0.01806641,-0.03417969,-0.99707031,0.,0.,0.,0
0.01708984,-0.03222656,-0.99853516,0.,0.,0.,0
0.02050781,-0.03417969,-1.00390625,0.,0.,0.,0
0.02294922,-0.03320312,-1.00048828,0.,0.,0.,0
0.02685547,-0.02978516,-0.99707031,0.,0.,0.,0
0.02490234,-0.03125,-0.99951172,0.,0.,0.,0
0.02099609,-0.03271484,-1.00097656,0.,0.,0.,0
0.01904297,-0.03125,-1.,0.,0.,0.,0
0.01904297,-0.03320312,-0.99951172,0.,0.,0.,0
0.02099609,-0.03417969,-1.00195312,0.,0.,0.,0
0.02294922,-0.03173828,-1.,0.,0.,0.,0
0.02294922,-0.02978516,-0.99804688,0.,0.,0.,0
0.02050781,-0.02978516,-0.99951172,0.,0.,0.,0
0.02197266,-0.02978516,-1.00146484,0.,0.,0.,0
0.02001953,-0.03222656,-0.99951172,0.,0.,0.,0
0.02050781,-0.03417969,-0.99951172,0.,0.,0.,0
0.02001953,-0.03320312,-1.00146484,0.,0.,0.,0
0.02148438,-0.03271484,-1.00097656,0.,0.,0.,0
0.02099609,-0.03271484,-1.00146484,0.,0.,0.,0
0.02197266,-0.03027344,-1.00097656,0.,0.,0.,0
0.02392578,-0.03027344,-0.99951172,0.,0.,0.,0
0.02197266,-0.03320312,-1.00048828,0.,0.,0.,0
0.01953125,-0.03369141,-1.00048828,0.,0.,0.,0
0.01806641,-0.03271484,-1.00195312,0.,0.,0.,0
0.01855469,-0.03369141,-1.00146484,0.,0.,0.,0
0.02099609,-0.03222656,-1.00097656,0.,0.,0.,0
0.02392578,-0.03027344,-1.,0.,0.,0.,0
0.02539062,-0.02978516,-0.99902344,0.,0.,0.,0
0.0234375,-0.03222656,-0.99853516,0.,0.,0.,0
0.02148438,-0.03222656,-1.00146484,0.,0.,0.,0
0.02050781,-0.03222656,-1.00195312,0.,0.,0.,0
0.02001953,-0.03320312,-1.00097656,0.,0.,0.,0
0.02050781,-0.03369141,-1.00048828,0.,0.,0.,0
0.02197266,-0.03222656,-1.00244141,0.,0.,0.,0
0.02294922,-0.03173828,-0.99902344,0.,0.,0.,0
0.02197266,-0.03173828,-0.99902344,0.,0.,0.,0
0.02148438,-0.03222656,-1.00195312,0.,0.,0.,0
0.02148438,-0.03173828,-1.,0.,0.,0.,0
0.02001953,-0.03076172,-1.00048828,0.,0.,0.,0
0.02099609,-0.03320312,-1.00097656,0.,0.,0.,0
0.02050781,-0.03320312,-1.00048828,0.,0.,0.,0
0.02050781,-0.03271484,-1.,0.,0.,0.,0
0.02148438,-0.03222656,-0.99951172,0.,0.,0.,0
0.02148438,-0.03222656,-1.00195312,0.,0.,0.,0
0.02148438,-0.03320312,-1.,0.,0.,0.,0
0.02148438,-0.03222656,-0.99902344,0.,0.,0.,0
0.02148438,-0.03320312,-1.00048828,0.,0.,0.,0
0.02148438,-0.03222656,-1.00097656,0.,0.,0.,0
0.02294922,-0.03222656,-1.,0.,0.,0.,0
0.02099609,-0.03222656,-0.99853516,0.,0.,0.,0
0.02148438,-0.03125,-1.00048828,0.,0.,0.,0
0.02148438,-0.03320312,-0.99951172,0.,0.,0.,0
0.02197266,-0.03173828,-0.99951172,0.,0.,0.,0
0.02197266,-0.03173828,-0.99951172,0.,0.,0.,0
0.02197266,-0.03222656,-1.,0.,0.,0.,0
0.02050781,-0.03320312,-1.00146484,0.,0.,0.,0
0.02099609,-0.03417969,-1.00048828,0.,0.,0.,0
0.02148438,-0.03320312,-1.,0.,0.,0.,0
0.02050781,-0.03222656,-0.99853516,0.,0.,0.,0
0.02246094,-0.03271484,-1.,0.,0.,0.,0
0.02148438,-0.03173828,-1.,0.,0.,0.,0
0.02197266,-0.03222656,-1.00048828,0.,0.,0.,0
0.02148438,-0.03173828,-1.00195312,0.,0.,0.,0
0.02148438,-0.03222656,-1.,0.,0.,0.,0
0.02246094,-0.03173828,-0.99853516,0.,0.,0.,0
0.02148438,-0.03222656,-1.00048828,0.,0.,0.,0
0.02148438,-0.03173828,-1.00048828,0.,0.,0.,0
0.02099609,-0.03222656,-1.00048828,0.,0.,0.,0
0.02246094,-0.03320312,-1.,0.,0.,0.,0
0.02148438,-0.03222656,-1.00146484,0.,0.,0.,0
0.02148438,-0.03076172,-1.,0.,0.,0.,0
0.02197266,-0.03173828,-0.99902344,0.,0.,0.,0
0.02197266,-0.03173828,-1.00244141,0.,0.,0.,0
0.02246094,-0.03125,-0.99951172,0.,0.,0.,0
0.02197266,-0.03027344,-0.99853516,0.,0.,0.,0
0.02050781,-0.03466797,-1.00195312,0.,0.,0.,0
0.02148438,-0.03320312,-1.00048828,0.,0.,0.,0
0.02148438,-0.03222656,-1.00048828,0.,0.,0.,0
0.02197266,-0.03320312,-0.99853516,0.,0.,0.,0
0.02197266,-0.03271484,-1.00048828,0.,0.,0.,0
0.02099609,-0.03125,-1.,0.,0.,0.,0
0.02246094,-0.03222656,-1.,0.,0.,0.,0
0.02148438,-0.03173828,-1.00146484,0.,0.,0.,0
0.02050781,-0.03222656,-0.99853516,0.,0.,0.,0
0.02099609,-0.03271484,-0.99902344,0.,0.,0.,0
0.02050781,-0.03320312,-1.00195312,0.,0.,0.,0
0.02099609,-0.03320312,-1.00097656,0.,0.,0.,0
0.02001953,-0.03076172,-0.99853516,0.,0.,0.,0
0.02099609,-0.03271484,-1.00097656,0.,0.,0.,0
0.02294922,-0.03271484,-1.00146484,0.,0.,0.,0
0.02148438,-0.03076172,-1.,0.,0.,0.,0
0.02099609,-0.03125,-0.99951172,0.,0.,0.,0
0.02148438,-0.03271484,-0.99951172,0.,0.,0.,0
0.02099609,-0.03271484,-1.00146484,0.,0.,0.,0
0.02294922,-0.03173828,-1.,0.,0.,0.,0
0.02197266,-0.03222656,-1.,0.,0.,0.,0
0.02197266,-0.03271484,-1.00146484,0.,0.,0.,0
0.02099609,-0.03173828,-1.00048828,0.,0.,0.,0
0.02197266,-0.03271484,-1.,0.,0.,0.,0
0.02294922,-0.03271484,-0.99853516,0.,0.,0.,0
0.02099609,-0.03320312,-1.,0.,0.,0.,0
0.02099609,-0.03222656,-1.00048828,0.,0.,0.,0
0.02050781,-0.03125,-1.00244141,0.,0.,0.,0
0.01953125,-0.03125,-1.,0.,0.,0.,0
0.02099609,-0.03173828,-1.00048828,0.,0.,0.,0
0.02099609,-0.03125,-1.,0.,0.,0.,0
0.02246094,-0.03173828,-1.00048828,0.,0.,0.,0
0.02197266,-0.03320312,-1.00048828,0.,0.,0.,0
0.02099609,-0.03125,-1.,0.,0.,0.,0
0.02001953,-0.03222656,-1.00195312,0.,0.,0.,0
0.02050781,-0.03222656,-0.99902344,0.,0.,0.,0
0.02197266,-0.03271484,-1.00048828,0.,0.,0.,0
0.02246094,-0.03173828,-0.99902344,0.,0.,0.,0
0.02148438,-0.03125,-0.99951172,0.,0.,0.,0
0.02197266,-0.03222656,-1.,0.,0.,0.,0
0.02001953,-0.03222656,-1.,0.,0.,0.,0
0.02246094,-0.03222656,-1.00048828,0.,0.,0.,0
0.02246094,-0.03222656,-1.00146484,0.,0.,0.,0
0.02099609,-0.03222656,-1.00097656,0.,0.,0.,0
0.02050781,-0.03222656,-1.,0.,0.,0.,0
0.02050781,-0.03222656,-0.99951172,0.,0.,0.,0
0.0234375,-0.03125,-1.00048828,0.,0.,0.,0
0.02197266,-0.03222656,-1.00048828,0.,0.,0.,0
0.02246094,-0.03320312,-1.00048828,0.,0.,0.,0
0.02197266,-0.03271484,-1.00048828,0.,0.,0.,0
0.02148438,-0.03320312,-0.99902344,0.,0.,0.,0
0.02001953,-0.03271484,-1.00048828,0.,0.,0.,0
0.02148438,-0.03173828,-1.00048828,0.,0.,0.,0
0.02148438,-0.03222656,-0.99902344,0.,0.,0.,0
0.02050781,-0.03222656,-1.,0.,0.,0.,0
0.02099609,-0.03271484,-1.00195312,0.,0.,0.,0
0.02197266,-0.03222656,-1.,0.,0.,0.,0
0.02197266,-0.03222656,-1.00048828,0.,0.,0.,0
0.02197266,-0.03222656,-1.,0.,0.,0.,0
0.02148438,-0.03271484,-1.,0.,0.,0.,0
0.02001953,-0.03222656,-1.00097656,0.,0.,0.,0
0.02148438,-0.03271484,-1.00048828,0.,0.,0.,0
0.02099609,-0.03222656,-1.,0.,0.,0.,0
0.02197266,-0.03125,-1.,0.,0.,0.,0
0.02050781,-0.03320312,-0.99853516,0.,0.,0.,0
0.02050781,-0.03222656,-1.00097656,0.,0.,0.,0
0.02050781,-0.03125,-0.99951172,0.,0.,0.,0
0.02099609,-0.03076172,-1.,0.,0.,0.,0
0.02099609,-0.03222656,-1.,0.,0.,0.,0
0.02099609,-0.03271484,-1.00244141,0.,0.,0.,0
0.02148438,-0.03173828,-1.00048828,0.,0.,0.,0
0.02050781,-0.03173828,-1.00048828,0.,0.,0.,0
0.02099609,-0.03222656,-1.00048828,0.,0.,0.,0
0.02099609,-0.02978516,-0.99853516,0.,0.,0.,0
0.02197266,-0.03173828,-1.00048828,0.,0.,0.,0
0.02197266,-0.03173828,-1.00146484,0.,0.,0.,0
0.02148438,-0.03271484,-1.,0.,0.,0.,0
0.02099609,-0.03320312,-1.00097656,0.,0.,0.,0
0.02099609,-0.03271484,-0.99853516,0.,0.,0.,0
0.02099609,-0.03222656,-1.,0.,0.,0.,0
0.02148438,-0.03271484,-1.,0.,0.,0.,0
0.02246094,-0.03320312,-1.00048828,0.,0.,0.,0
0.0234375,-0.03222656,-1.,0.,0.,0.,0
0.02197266,-0.03271484,-1.,0.,0.,0.,0
0.02099609,-0.03320312,-1.00097656,0.,0.,0.,0
0.02050781,-0.03369141,-1.00146484,0.,0.,0.,0
0.01953125,-0.03222656,-1.00195312,0.,0.,0.,0
0.02148438,-0.03125,-1.00048828,0.,0.,0.,0
0.02148438,-0.03222656,-1.00097656,0.,0.,0.,0
0.02197266,-0.03222656,-1.00097656,0.,0.,0.,0
0.02148438,-0.03125,-1.00048828,0.,0.,0.,0
0.02148438,-0.03222656,-1.,0.,0.,0.,0
0.02001953,-0.03222656,-1.00097656,0.,0.,0.,0
0.02148438,-0.03271484,-1.00048828,0.,0.,0.,0
0.02050781,-0.03173828,-0.99951172,0.,0.,0.,0
0.02294922,-0.03271484,-1.,0.,0.,0.,0
0.02099609,-0.03222656,-1.00146484,0.,0.,0.,0
0.01904297,-0.03173828,-1.,0.,0.,0.,0
0.02050781,-0.03173828,-0.99951172,0.,0.,0.,0
0.02099609,-0.02978516,-1.00048828,0.,0.,0.,0
0.02294922,-0.03076172,-1.00097656,0.,0.,0.,0
0.02099609,-0.03222656,-1.,0.,0.,0.,0
0.01904297,-0.03320312,-0.99902344,0.,0.,0.,0
0.02148438,-0.03222656,-0.99853516,0.,0.,0.,0
0.02099609,-0.03222656,-1.00097656,0.,0.,0.,0
0.02148438,-0.03125,-1.00048828,0.,0.,0.,0
0.02197266,-0.03027344,-0.99902344,0.,0.,0.,0
0.02246094,-0.03027344,-0.99951172,0.,0.,0.,0
0.02294922,-0.03271484,-0.99951172,0.,0.,0.,0
0.02148438,-0.03222656,-0.99951172,0.,0.,0.,0
0.02050781,-0.03222656,-0.99804688,0.,0.,0.,0
0.02050781,-0.03417969,-1.00537109,0.,0.,0.,0
0.01904297,-0.03369141,-0.99951172,0.,0.,0.,0
0.02197266,-0.03076172,-0.99804688,0.,0.,0.,0
0.02392578,-0.03076172,-1.00146484,0.,0.,0.,0
0.02246094,-0.03271484,-1.00146484,0.,0.,0.,0
0.02197266,-0.02978516,-0.99951172,0.,0.,0.,0
0.02197266,-0.03076172,-0.99853516,0.,0.,0.,0
0.02246094,-0.03369141,-1.00244141,0.,0.,0.,0
0.02197266,-0.03222656,-1.00146484,0.,0.,0.,0
0.01953125,-0.03271484,-0.99951172,0.,0.,0.,0
0.01904297,-0.03271484,-1.00146484,0.,0.,0.,0
0.02001953,-0.03222656,-1.00097656,0.,0.,0.,0
0.02294922,-0.02978516,-0.99804688,0.,0.,0.,0
0.0234375,-0.03173828,-0.99951172,0.,0.,0.,0
0.02294922,-0.03125,-1.00097656,0.,0.,0.,0
0.02050781,-0.03369141,-1.00048828,0.,0.,0.,0
0.01904297,-0.03222656,-0.99951172,0.,0.,0.,0
0.02001953,-0.03369141,-1.00244141,0.,0.,0.,0
0.02148438,-0.03271484,-1.00048828,0.,0.,0.,0
0.02246094,-0.03173828,-0.99902344,0.,0.,0.,0
0.02294922,-0.03125,-1.,0.,0.,0.,0
0.02148438,-0.03222656,-0.99902344,0.,0.,0.,0
0.02099609,-0.03173828,-1.00048828,0.,0.,0.,0
0.02197266,-0.03173828,-1.00048828,0.,0.,0.,0
0.02050781,-0.03271484,-1.00097656,0.,0.,0.,0
0.02148438,-0.03271484,-1.00097656,0.,0.,0.,0
0.02001953,-0.03222656,-1.00097656,0.,0.,0.,0
0.02148438,-0.03125,-1.00048828,0.,0.,0.,0
0.02246094,-0.03222656,-1.,0.,0.,0.,0
0.02246094,-0.03173828,-1.00146484,0.,0.,0.,0
0.02148438,-0.03076172,-0.99853516,0.,0.,0.,0
0.02197266,-0.03222656,-1.00097656,0.,0.,0.,0
0.02001953,-0.03369141,-1.00097656,0.,0.,0.,0
0.02001953,-0.03173828,-1.,0.,0.,0.,0
0.02197266,-0.03271484,-1.00048828,0.,0.,0.,0
0.02050781,-0.03125,-1.00048828,0.,0.,0.,0
0.02197266,-0.03076172,-0.99902344,0.,0.,0.,0
0.02294922,-0.03125,-1.00048828,0.,0.,0.,0
0.02148438,-0.03271484,-0.99902344,0.,0.,0.,0
0.02050781,-0.03222656,-1.00048828,0.,0.,0.,0
0.02001953,-0.03222656,-1.00048828,0.,0.,0.,0
0.02050781,-0.03320312,-1.00195312,0.,0.,0.,0
0.02148438,-0.03125,-1.00146484,0.,0.,0.,0
0.0234375,-0.03125,-0.99951172,0.,0.,0.,0
0.0234375,-0.03173828,-0.99902344,0.,0.,0.,0
0.02246094,-0.03125,-1.00048828,0.,0.,0.,0
0.02148438,-0.03125,-1.00048828,0.,0.,0.,0
0.02001953,-0.03369141,-1.00048828,0.,0.,0.,0
0.02099609,-0.03417969,-1.00146484,0.,0.,0.,0
0.02099609,-0.03271484,-1.00048828,0.,0.,0.,0
0.02197266,-0.03271484,-1.00048828,0.,0.,0.,0
0.02197266,-0.03271484,-0.99902344,0.,0.,0.,0
0.02099609,-0.03222656,-1.,0.,0.,0.,0
0.02246094,-0.03027344,-0.99804688,0.,0.,0.,0
0.02050781,-0.03320312,-1.00048828,0.,0.,0.,0
0.02099609,-0.03320312,-1.00048828,0.,0.,0.,0
0.01953125,-0.03222656,-1.00048828,0.,0.,0.,0
0.02148438,-0.03369141,-1.,0.,0.,0.,0
0.02246094,-0.03271484,-1.00048828,0.,0.,0.,0
0.02246094,-0.03271484,-1.00097656,0.,0.,0.,0
0.02246094,-0.03125,-0.99902344,0.,0.,0.,0
0.02148438,-0.03271484,-1.00146484,0.,0.,0.,0
0.02050781,-0.03271484,-1.00146484,0.,0.,0.,0
0.02001953,-0.03173828,-0.99804688,0.,0.,0.,0
0.02197266,-0.03173828,-1.00048828,0.,0.,0.,0
0.02099609,-0.03320312,-1.00146484,0.,0.,0.,0
0.02246094,-0.03173828,-1.00146484,0.,0.,0.,0
0.02050781,-0.03369141,-1.,0.,0.,0.,0
0.02050781,-0.03320312,-1.00048828,0.,0.,0.,0
0.02099609,-0.03271484,-1.00048828,0.,0.,0.,0
0.02099609,-0.03222656,-1.00097656,0.,0.,0.,0
0.02148438,-0.03125,-0.99853516,0.,0.,0.,0
0.02099609,-0.03173828,-1.,0.,0.,0.,0
0.02197266,-0.03076172,-1.00097656,0.,0.,0.,0
0.02001953,-0.03173828,-0.99902344,0.,0.,0.,0
0.01953125,-0.03417969,-1.00048828,0.,0.,0.,0
0.02001953,-0.03173828,-0.99902344,0.,0.,0.,0
0.02050781,-0.03320312,-0.99951172,0.,0.,0.,0
0.02148438,-0.03320312,-0.99902344,0.,0.,0.,0
0.02392578,-0.03076172,-1.,0.,0.,0.,0
0.0234375,-0.03173828,-0.99853516,0.,0.,0.,0
0.02246094,-0.03027344,-0.99902344,0.,0.,0.,0
0.02050781,-0.03173828,-1.00195312,0.,0.,0.,0
0.02001953,-0.03271484,-0.99951172,0.,0.,0.,0
0.01757812,-0.03515625,-1.00292969,0.,0.,0.,0
0.02001953,-0.03369141,-1.00048828,0.,0.,0.,0
0.02148438,-0.03076172,-0.99707031,0.,0.,0.,0
0.02587891,-0.03027344,-1.00048828,0.,0.,0.,0
0.02490234,-0.03125,-1.00097656,0.,0.,0.,0
0.02099609,-0.03222656,-0.99755859,0.,0.,0.,0
0.02050781,-0.03271484,-1.00097656,0.,0.,0.,0
0.01806641,-0.03515625,-1.00390625,0.,0.,0.,0
0.01660156,-0.03369141,-0.99804688,0.,0.,0.,0
0.02099609,-0.03173828,-1.00048828,0.,0.,0.,0
0.02294922,-0.03222656,-1.00292969,0.,0.,0.,0
0.02246094,-0.03173828,-1.00097656,0.,0.,0.,0
0.0234375,-0.02929688,-0.99902344,0.,0.,0.,0
0.02197266,-0.03173828,-1.00195312,0.,0.,0.,0
0.02001953,-0.03369141,-1.00292969,0.,0.,0.,0
0.02148438,-0.03320312,-1.00195312,0.,0.,0.,0
0.02050781,-0.03271484,-1.,0.,0.,0.,0
0.02050781,-0.03271484,-1.,0.,0.,0.,0
0.02197266,-0.03027344,-1.,0.,0.,0.,0
0.02050781,-0.02978516,-0.99755859,0.,0.,0.,0
0.02197266,-0.03027344,-0.99951172,0.,0.,0.,0
0.0234375,-0.03222656,-1.,0.,0.,0.,0
0.02294922,-0.03222656,-1.00048828,0.,0.,0.,0
0.02148438,-0.03320312,-1.00048828,0.,0.,0.,0
0.02050781,-0.03271484,-1.00097656,0.,0.,0.,0
0.01904297,-0.03417969,-1.00097656,0.,0.,0.,0
0.02001953,-0.03173828,-1.00048828,0.,0.,0.,0
0.02197266,-0.03125,-0.99902344,0.,0.,0.,0
0.02294922,-0.03222656,-1.,0.,0.,0.,0
0.02294922,-0.03173828,-0.99853516,0.,0.,0.,0
0.02001953,-0.03271484,-0.99902344,0.,0.,0.,0
0.02001953,-0.03369141,-1.00195312,0.,0.,0.,0
0.0234375,-0.03320312,-0.99951172,0.,0.,0.,0
0.02099609,-0.03222656,-0.99804688,0.,0.,0.,0
0.02148438,-0.03271484,-0.99902344,0.,0.,0.,0
0.02099609,-0.03222656,-1.00146484,0.,0.,0.,0
0.02050781,-0.03173828,-0.99902344,0.,0.,0.,0
0.02050781,-0.03222656,-0.99902344,0.,0.,0.,0
0.02148438,-0.03320312,-1.,0.,0.,0.,0
0.02294922,-0.03173828,-0.99902344,0.,0.,0.,0
0.02099609,-0.03125,-1.00048828,0.,0.,0.,0
0.02148438,-0.03320312,-1.,0.,0.,0.,0
0.02246094,-0.03222656,-1.,0.,0.,0.,0
0.02246094,-0.03125,-0.99902344,0.,0.,0.,0
0.02294922,-0.03222656,-1.00048828,0.,0.,0.,0
0.02148438,-0.03173828,-1.00048828,0.,0.,0.,0
0.02050781,-0.03271484,-1.00048828,0.,0.,0.,0
0.02099609,-0.03320312,-1.00048828,0.,0.,0.,0
0.02001953,-0.03369141,-1.00195312,0.,0.,0.,0
0.02099609,-0.03271484,-1.,0.,0.,0.,0
0.02001953,-0.03076172,-0.99951172,0.,0.,0.,0
0.02099609,-0.03271484,-0.99951172,0.,0.,0.,0
0.02246094,-0.03173828,-0.99902344,0.,0.,0.,0
0.02246094,-0.03222656,-0.99902344,0.,0.,0.,0
0.02197266,-0.03222656,-1.00048828,0.,0.,0.,0
0.01953125,-0.03320312,-1.00195312,0.,0.,0.,0
0.01904297,-0.03320312,-1.00097656,0.,0.,0.,0
0.01904297,-0.03173828,-1.00146484,0.,0.,0.,0
0.02050781,-0.03320312,-1.00048828,0.,0.,0.,0
0.02148438,-0.03125,-0.99951172,0.,0.,0.,0
0.02294922,-0.03076172,-0.99951172,0.,0.,0.,0
0.02197266,-0.03271484,-1.,0.,0.,0.,0
0.02050781,-0.03320312,-1.00048828,0.,0.,0.,0
0.02148438,-0.03271484,-1.,0.,0.,0.,0
0.02148438,-0.03320312,-1.00048828,0.,0.,0.,0
0.02099609,-0.03271484,-1.,0.,0.,0.,0
0.02197266,-0.03173828,-0.99755859,0.,0.,0.,0
0.02197266,-0.03173828,-0.99853516,0.,0.,0.,0
0.02246094,-0.03271484,-1.00097656,0.,0.,0.,0
0.02099609,-0.03271484,-1.,0.,0.,0.,0
0.02099609,-0.03271484,-1.00097656,0.,0.,0.,0
0.01953125,-0.03320312,-0.99951172,0.,0.,0.,0
0.01757812,-0.03271484,-1.00097656,0.,0.,0.,0
0.02050781,-0.03076172,-1.00097656,0.,0.,0.,0
0.02197266,-0.03271484,-1.00048828,0.,0.,0.,0
0.02294922,-0.03076172,-1.00048828,0.,0.,0.,0
0.02246094,-0.03222656,-1.00048828,0.,0.,0.,0
0.02197266,-0.03222656,-1.00048828,0.,0.,0.,0
0.01953125,-0.03320312,-1.,0.,0.,0.,0
0.02001953,-0.03320312,-0.99853516,0.,0.,0.,0
0.02294922,-0.03173828,-0.99853516,0.,0.,0.,0
0.02197266,-0.03222656,-1.00097656,0.,0.,0.,0
0.02197266,-0.03222656,-1.00146484,0.,0.,0.,0
0.02148438,-0.03222656,-0.99853516,0.,0.,0.,0
0.02392578,-0.03271484,-0.99902344,0.,0.,0.,0
0.0234375,-0.03369141,-1.00146484,0.,0.,0.,0
0.02001953,-0.03222656,-1.,0.,0.,0.,0
0.01806641,-0.03222656,-1.00146484,0.,0.,0.,0
0.01953125,-0.03222656,-1.00097656,0.,0.,0.,0
0.02099609,-0.03320312,-1.00048828,0.,0.,0.,0
0.02392578,-0.03173828,-0.99853516,0.,0.,0.,0
0.02197266,-0.03369141,-1.00097656,0.,0.,0.,0
0.01806641,-0.03125,-1.00244141,0.,0.,0.,0
0.01806641,-0.03027344,-0.99804688,0.,0.,0.,0
0.02148438,-0.03173828,-1.,0.,0.,0.,0
0.02099609,-0.03320312,-1.00097656,0.,0.,0.,0
0.02197266,-0.03271484,-1.00048828,0.,0.,0.,0
0.02099609,-0.03271484,-1.00097656,0.,0.,0.,0
0.01953125,-0.03222656,-1.00097656,0.,0.,0.,0
0.01904297,-0.03271484,-1.00195312,0.,0.,0.,0
0.02050781,-0.03173828,-0.99951172,0.,0.,0.,0
0.02294922,-0.03173828,-0.99951172,0.,0.,0.,0
0.0234375,-0.03369141,-1.00048828,0.,0.,0.,0
0.02148438,-0.03173828,-1.00048828,0.,0.,0.,0
0.02050781,-0.03222656,-1.,0.,0.,0.,0
0.02050781,-0.03222656,-1.00097656,0.,0.,0.,0
0.02148438,-0.03173828,-1.,0.,0.,0.,0
0.02294922,-0.03125,-0.99804688,0.,0.,0.,0
0.0234375,-0.03222656,-1.,0.,0.,0.,0
0.02294922,-0.03125,-1.00097656,0.,0.,0.,0
0.02246094,-0.03027344,-1.,0.,0.,0.,0
0.02099609,-0.03222656,-1.00146484,0.,0.,0.,0
0.02099609,-0.03271484,-1.00097656,0.,0.,0.,0
0.02197266,-0.03369141,-0.99951172,0.,0.,0.,0
0.02148438,-0.03271484,-1.00097656,0.,0.,0.,0
0.02148438,-0.03222656,-1.00048828,0.,0.,0.,0
0.02197266,-0.03125,-1.00097656,0.,0.,0.,0
0.02246094,-0.03173828,-0.99804688,0.,0.,0.,0
0.02001953,-0.03222656,-1.00048828,0.,0.,0.,0
0.02148438,-0.03271484,-1.00195312,0.,0.,0.,0
0.02197266,-0.03222656,-1.00048828,0.,0.,0.,0
0.02099609,-0.03271484,-1.00048828,0.,0.,0.,0
0.02148438,-0.03173828,-1.00097656,0.,0.,0.,0
0.02294922,-0.03320312,-1.00048828,0.,0.,0.,0
0.0234375,-0.03125,-0.99951172,0.,0.,0.,0
0.02197266,-0.03027344,-1.00146484,0.,0.,0.,0
0.02197266,-0.03076172,-1.00048828,0.,0.,0.,0
0.02392578,-0.03173828,-1.,0.,0.,0.,0
0.02148438,-0.03222656,-1.00097656,0.,0.,0.,0
0.02099609,-0.03271484,-0.99951172,0.,0.,0.,0
0.02246094,-0.03173828,-1.,0.,0.,0.,0
0.02148438,-0.03320312,-0.99902344,0.,0.,0.,0
0.02246094,-0.03222656,-1.00097656,0.,0.,0.,0
0.02148438,-0.03173828,-1.00097656,0.,0.,0.,0
0.02050781,-0.03369141,-0.99951172,0.,0.,0.,0
0.02197266,-0.03222656,-1.00146484,0.,0.,0.,0
0.02099609,-0.03222656,-0.99951172,0.,0.,0.,0
0.02099609,-0.03271484,-1.00048828,0.,0.,0.,0
0.02099609,-0.03320312,-1.00146484,0.,0.,0.,0
0.02148438,-0.03222656,-1.00097656,0.,0.,0.,0
0.02050781,-0.03125,-1.00097656,0.,0.,0.,0
-0.34716797,-0.35644531,-1.00927734,-8.48388672,-9.15527344,-35.40039062,0
-0.04931641,-0.11523438,-0.97949219,-2.50244141,-4.94384766,-153.07617188,0
-0.03076172,0.0234375,-1.01318359,11.35253906,2.56347656,-189.94140625,0
-0.09423828,-0.03271484,-0.99853516,4.02832031,-2.68554688,-229.61425781,0
-0.10107422,-0.06787109,-1.,11.71875,2.80761719,-255.67626953,0
-0.078125,-0.06298828,-1.01269531,5.31005859,-2.74658203,-261.96289062,0
-0.07861328,-0.06201172,-0.98925781,6.10351562,-3.05175781,-241.94335938,0
0.078125,0.0703125,-1.00976562,5.31005859,-1.77001953,-160.15625,0
0.10400391,0.0234375,-0.99267578,-1.953125,-2.62451172,-77.20947266,0
0.11572266,0.01318359,-0.99414062,-0.79345703,-1.03759766,-21.36230469,0
0.20214844,0.04785156,-1.00244141,-4.33349609,-0.30517578,-0.36621094,0
0.23730469,0.09082031,-0.99609375,-2.07519531,-1.28173828,3.41796875,0
0.13476562,0.06494141,-0.99853516,0.67138672,-0.06103516,0.73242188,0
0.02392578,-0.03466797,-1.,0.,0.,0.,0
0.02099609,-0.03466797,-1.00048828,0.24414062,0.,0.,0
0.16552734,-0.00585938,-1.00048828,-1.89208984,0.24414062,3.47900391,0
0.18554688,0.06542969,-1.00048828,2.74658203,0.91552734,-1.46484375,0
0.11669922,0.05957031,-1.,1.89208984,-0.30517578,-58.34960938,0
0.10644531,-0.03369141,-1.00195312,1.83105469e-01,6.10351562e-02,-6.42089844e+01,0
0.05322266,-0.03369141,-0.99462891,1.03759766,0.06103516,-56.33544922,0
0.05517578,0.00537109,-1.01074219,0.54931641,-0.24414062,-66.46728516,0
-0.37255859,-0.08837891,-0.99853516,3.54003906,0.,-53.16162109,0
-0.23388672,-0.07666016,-1.00976562,6.53076172e+00,-6.10351562e-02,-7.07397461e+01,0
-0.06298828,0.07470703,-0.99462891,13.79394531,-0.18310547,-67.99316406,0
-0.12744141,0.05615234,-0.99267578,1.953125,-1.34277344,-79.58984375,0
-0.0703125,-0.01269531,-1.01074219,1.09863281,-1.64794922,-91.61376953,0
-0.05566406,-0.01660156,-0.99902344,2.56347656,-1.77001953,-92.10205078,0
-0.03955078,-0.04492188,-0.98974609,2.38037109,-2.99072266,-80.01708984,0
-0.03271484,-0.03955078,-0.99853516,2.9296875,-0.9765625,-69.70214844,0
-0.05175781,-0.02490234,-1.00830078,2.56347656,-1.89208984,-63.65966797,0
-0.05224609,0.00390625,-1.00097656,2.01416016,-1.89208984,-68.17626953,0
-0.05273438,0.01025391,-0.99560547,1.52587891,-2.38037109,-76.66015625,0
-0.02294922,-0.01904297,-1.02978516,7.69042969,-8.85009766,-81.97021484,0
-0.00878906,-0.02392578,-1.04980469,9.46044922,-33.38623047,-77.81982422,0
-0.01074219,-0.02099609,-1.06591797,-13.61083984,-74.76806641,-71.96044922,0
0.00927734,-0.08496094,-1.11035156,-31.37207031,-83.86230469,-75.13427734,0
-0.00439453,0.00976562,-0.99902344,1.28173828,-74.27978516,-67.50488281,0
-0.02050781,-0.01074219,-1.02685547,-10.98632812,-75.1953125,-70.49560547,0
-0.06201172,-0.01464844,-1.078125,-14.95361328,-49.07226562,-78.18603516,0
-0.04736328,-0.04833984,-1.10058594,-7.69042969,-16.11328125,-87.21923828,0
-0.04589844,-0.05761719,-1.06591797,12.26806641,11.41357422,-89.11132812,0
-0.08837891,-0.04541016,-1.01611328,24.96337891,15.625,-84.83886719,0
-0.13134766,-0.05957031,-0.98925781,23.62060547,1.89208984,-74.58496094,0
-0.12597656,-0.0703125,-0.99902344,19.77539062,-9.88769531,-59.93652344,0
-0.09619141,-0.07861328,-1.015625,19.71435547,-6.10351562,-48.09570312,0
-0.08007812,-0.05322266,-1.02685547,21.72851562,4.94384766,-44.31152344,0
-0.00683594,-0.01220703,-1.046875,19.16503906,18.61572266,-51.87988281,0
0.04296875,-0.00146484,-1.05908203,23.4375,44.12841797,-72.75390625,0
0.05517578,0.00390625,-1.04882812,17.88330078,59.69238281,-90.75927734,0
0.10107422,-0.06103516,-1.04443359,23.13232422,79.46777344,-101.13525391,0
0.04833984,-0.07226562,-1.03466797,27.83203125,96.31347656,-96.25244141,0
0.02685547,-0.08886719,-1.05419922,22.70507812,101.80664062,-87.46337891,0
0.02148438,-0.08984375,-1.07177734,29.35791016,114.50195312,-75.98876953,0
0.03417969,-0.07373047,-1.03564453,37.96386719,126.28173828,-58.53271484,0
0.11181641,-0.05712891,-0.98339844,44.67773438,130.61523438,-41.80908203,0
0.19580078,-0.046875,-0.96972656,47.54638672,126.58691406,-31.31103516,0
0.18945312,-0.04736328,-1.02246094,46.81396484,131.34765625,-25.93994141,0
0.19921875,-0.06738281,-1.04101562,51.57470703,147.09472656,-15.50292969,0
0.25878906,-0.09277344,-1.02099609,58.22753906,159.1796875,-5.06591797,0
0.33203125,-0.1171875,-0.99414062,68.66455078,165.10009766,1.77001953,0
0.37207031,-0.14990234,-0.97802734,78.18603516,171.44775391,3.72314453,0
0.37548828,-0.18701172,-0.99072266,80.62744141,180.96923828,3.60107422,0
0.35693359,-0.20800781,-1.00634766,82.58056641,185.546875,5.24902344,0
0.33935547,-0.19384766,-0.98291016,91.36962891,181.82373047,19.47021484,0
0.38085938,-0.20117188,-0.94482422,102.47802734,179.80957031,31.49414062,0
0.43847656,-0.22265625,-0.91650391,113.28125,179.93164062,35.52246094,0
0.46386719,-0.22314453,-0.88232422,126.03759766,174.8046875,38.94042969,0
0.44384766,-0.24707031,-0.79833984,142.94433594,162.59765625,43.33496094,0
0.43212891,-0.24267578,-0.76220703,152.89306641,154.296875,46.50878906,0
0.43798828,-0.24462891,-0.71337891,172.8515625,132.56835938,53.10058594,0
0.47265625,-0.23632812,-0.71923828,176.20849609,110.29052734,64.88037109,0
0.51611328,-0.26513672,-0.74121094,174.43847656,116.45507812,59.44824219,0
0.56396484,-0.30761719,-0.71289062,168.76220703,131.77490234,42.66357422,0
0.58105469,-0.31640625,-0.69335938,178.52783203,152.58789062,31.43310547,0
0.56201172,-0.36083984,-0.67333984,211.18164062,179.07714844,19.53125,0
0.55126953,-0.31494141,-0.58496094,214.96582031,184.99755859,9.64355469,0
0.55517578,-0.29150391,-0.51660156,1.98547363e+02,1.77307129e+02,6.10351562e-02,0
0.58935547,-0.31054688,-0.48388672,150.32958984,157.77587891,-20.08056641,0
0.63867188,-0.39160156,-0.51660156,83.25195312,131.8359375,-40.40527344,0
0.71777344,-0.49560547,-0.56396484,34.11865234,104.67529297,-45.53222656,0
0.83251953,-0.63916016,-0.59521484,50.90332031,110.90087891,-36.01074219,0
0.828125,-0.59765625,-0.67724609,101.25732422,132.50732422,-28.56445312,0
0.83203125,-0.62255859,-0.54296875,114.62402344,132.08007812,-27.46582031,0
0.84667969,-0.59423828,-0.50732422,99.18212891,126.28173828,-41.19873047,0
0.82421875,-0.6171875,-0.47314453,77.57568359,127.80761719,-53.95507812,0
0.82568359,-0.58007812,-0.390625,67.62695312,132.32421875,-70.73974609,0
0.82617188,-0.54541016,-0.3359375,59.99755859,131.53076172,-84.77783203,0
0.83984375,-0.53808594,-0.32177734,52.36816406,134.70458984,-111.57226562,0
0.875,-0.49609375,-0.34375,48.828125,144.77539062,-138.30566406,0
0.85253906,-0.50585938,-0.36669922,44.49462891,160.03417969,-152.58789062,0
0.82470703,-0.48535156,-0.33837891,40.22216797,180.35888672,-170.77636719,0
0.76904297,-0.41162109,-0.28808594,29.35791016,180.11474609,-178.89404297,0
0.83740234,-0.40185547,-0.18652344,16.41845703,169.31152344,-166.87011719,0
0.87988281,-0.36572266,-0.13769531,15.19775391,180.84716797,-159.66796875,0
0.8984375,-0.30615234,-0.10644531,-19.47021484,159.30175781,-163.39111328,0
0.93994141,-0.32519531,-0.13427734,-35.33935547,146.484375,-178.40576172,0
0.93164062,-0.390625,-0.19042969,-62.74414062,122.92480469,-179.93164062,0
0.97851562,-0.41162109,-0.20458984,-88.31787109,142.94433594,-193.42041016,0
1.00585938,-0.36474609,-0.20166016,-109.43603516,176.02539062,-208.37402344,0
1.02294922,-0.30615234,-0.11181641,-107.17773438,171.81396484,-190.36865234,0
1.02490234,-0.25830078,-0.0546875,-92.16308594,160.09521484,-166.07666016,0
0.93554688,-0.19580078,-0.06542969,-89.53857422,153.13720703,-160.94970703,0
0.93408203,-0.13134766,-0.03222656,-120.60546875,125.9765625,-174.98779297,0
0.86230469,-0.20117188,-0.04345703,-140.07568359,108.82568359,-185.91308594,0
0.93261719,-0.20800781,-0.02197266,-132.56835938,104.79736328,-163.81835938,0
0.99707031,-0.10449219,0.02197266,-97.65625,107.54394531,-142.02880859,0
1.0390625,-0.05273438,0.03759766,-87.46337891,66.83349609,-119.93408203,0
1.08837891,-0.06982422,0.04443359,-109.00878906,35.82763672,-104.37011719,0
1.12597656,-0.11132812,0.02001953,-139.77050781,40.95458984,-96.19140625,0
1.09765625,-0.12060547,0.00732422,-143.37158203,72.20458984,-95.21484375,0
1.06835938,-0.18505859,-0.03320312,-102.90527344,128.41796875,-83.06884766,0
1.01708984,-0.078125,-0.04638672,-47.66845703,178.83300781,-69.64111328,0
0.97900391,0.01953125,0.00634766,-28.93066406,174.86572266,-68.42041016,0
0.92431641,0.02636719,0.07617188,-42.72460938,136.65771484,-72.57080078,0
0.90039062,-0.02392578,0.10205078,-50.72021484,104.91943359,-65.97900391,0
0.9296875,0.03564453,0.09863281,-47.24121094,91.49169922,-65.36865234,0
0.94921875,0.11230469,0.09765625,-47.42431641,95.27587891,-87.890625,0
0.96533203,0.08691406,0.05859375,-54.07714844,107.97119141,-104.91943359,0
1.01855469,0.03955078,0.06152344,-60.85205078,122.92480469,-106.01806641,0
1.00634766,0.04296875,0.09277344,-66.46728516,149.4140625,-105.16357422,0
0.93945312,0.078125,0.15380859,-78.24707031,167.23632812,-104.67529297,0
0.93359375,0.1171875,0.24462891,-90.51513672,157.47070312,-101.80664062,0
0.93652344,0.14404297,0.28955078,-99.97558594,143.92089844,-102.60009766,0
0.92480469,0.1796875,0.31982422,-108.33740234,142.08984375,-106.14013672,0
0.92041016,0.18359375,0.34619141,-113.22021484,140.50292969,-106.4453125,0
0.83935547,0.24414062,0.42626953,-211.79199219,16.35742188,-134.46044922,0
0.83984375,-0.01318359,0.42822266,-100.28076172,13.18359375,-102.11181641,0
0.78417969,0.10742188,0.48681641,-40.46630859,-0.91552734,-69.94628906,0
0.86621094,0.2109375,0.48095703,2.07519531,6.22558594,-61.70654297,0
0.87646484,0.28759766,0.43505859,15.86914062,20.75195312,-71.35009766,0
0.83837891,0.30517578,0.42529297,-3.41796875,29.90722656,-87.64648438,0
0.82421875,0.29101562,0.43164062,-29.41894531,41.32080078,-104.61425781,0
0.83349609,0.28222656,0.42822266,-41.74804688,56.82373047,-114.80712891,0
0.77880859,0.27294922,0.44775391,-46.14257812,77.81982422,-123.29101562,0
0.57421875,0.33300781,0.44824219,-48.76708984,98.20556641,-146.42333984,0
0.52392578,0.36816406,0.51269531,-77.94189453,85.63232422,-198.54736328,0
0.50585938,0.35302734,0.51025391,-94.97070312,58.59375,-239.37988281,0
0.49707031,0.30224609,0.52880859,-97.10693359,22.39990234,-268.31054688,0
0.56152344,0.26416016,0.53710938,-74.15771484,-3.54003906,-281.25,0
0.74951172,0.28759766,0.56982422,-36.1328125,-17.82226562,-265.80810547,0
0.93115234,0.36279297,0.640625,-5.06591797,-2.86865234,-218.75,0
1.00048828,0.52685547,0.75878906,-12.45117188,55.78613281,-157.65380859,0
0.80371094,0.59375,0.75878906,-68.48144531,122.31445312,-120.36132812,0
0.5234375,0.59277344,0.68212891,-125.30517578,86.54785156,-131.8359375,0
0.5546875,0.53369141,0.76513672,-182.06787109,62.56103516,-152.70996094,0
0.62255859,0.47509766,0.78222656,-201.23291016,51.87988281,-146.17919922,0
0.64355469,0.42138672,0.78173828,-181.27441406,46.14257812,-120.78857422,0
0.62939453,0.33740234,0.78320312,-140.50292969,42.41943359,-87.34130859,0
0.57617188,0.28417969,0.81933594,-96.98486328,27.03857422,-53.34472656,0
0.57226562,0.29833984,0.85205078,-45.34912109,-5.00488281,-23.01025391,0
0.58349609,0.35400391,0.82080078,5.43212891,-24.96337891,0.36621094,0
0.58935547,0.39257812,0.75488281,33.93554688,-22.70507812,20.44677734,0
0.56982422,0.37841797,0.72070312,41.07666016,-14.22119141,39.36767578,0
0.55664062,0.35498047,0.71533203,53.64990234,-12.39013672,54.50439453,0
0.55957031,0.33496094,0.71289062,82.88574219,-16.41845703,69.39697266,0
0.56591797,0.29199219,0.70703125,121.64306641,-18.24951172,88.19580078,0
0.58349609,0.25732422,0.68310547,170.04394531,-14.95361328,115.96679688,0
0.58251953,0.37060547,0.56201172,252.80761719,5.73730469,162.109375,0
0.23339844,0.43115234,0.14355469,332.45849609,-126.89208984,132.75146484,0
0.6640625,0.51806641,0.30761719,341.00341797,-182.98339844,105.34667969,0
0.81835938,0.58740234,0.47119141,315.79589844,-148.37646484,112.97607422,0
0.74023438,0.56787109,0.45605469,317.3828125,-107.97119141,119.81201172,0
0.6953125,0.56054688,0.35009766,324.09667969,-89.11132812,117.67578125,0
0.71533203,0.59814453,0.27294922,316.52832031,-88.37890625,112.48779297,0
0.80371094,0.64599609,0.29394531,303.7109375,-76.59912109,109.80224609,0
0.81103516,0.63525391,0.27734375,289.91699219,-55.48095703,104.24804688,0
0.76660156,0.54394531,0.24072266,289.85595703,-51.33056641,106.68945312,0
0.72900391,0.43505859,0.18115234,314.33105469,-78.43017578,128.66210938,0
0.73730469,0.36962891,0.10644531,341.73583984,-114.68505859,161.37695312,0
0.73535156,0.38183594,0.03808594,347.96142578,-151.61132812,192.19970703,0
0.75,0.45800781,-0.02001953,357.60498047,-197.81494141,217.95654297,0
0.76660156,0.54833984,-0.05078125,367.37060547,-250.48828125,230.52978516,0
0.85302734,0.54980469,-0.15039062,341.43066406,-273.55957031,222.16796875,0
1.29785156,0.69433594,-0.26464844,135.25390625,-133.42285156,87.70751953,0
1.14306641,0.57275391,-0.25,58.28857422,5.55419922,6.71386719,0
0.88574219,0.44238281,-0.27685547,20.62988281,29.05273438,-23.55957031,0
0.87158203,0.35888672,-0.24951172,-4.57763672,9.39941406,-25.93994141,0
0.87939453,0.34960938,-0.234375,-20.93505859,-8.66699219,-21.66748047,0
0.90087891,0.36669922,-0.23095703,-26.00097656,-13.30566406,-21.05712891,0
0.9609375,0.43408203,-0.26757812,-31.86035156,-13.42773438,-23.19335938,0
0.94824219,0.46435547,-0.25195312,-51.02539062,-10.7421875,-33.81347656,0
0.89990234,0.48095703,-0.20214844,-83.12988281,-6.22558594,-52.00195312,0
0.93359375,0.50976562,-0.21972656,-107.36083984,4.51660156,-69.15283203,0
0.9296875,0.56396484,-0.24121094,-131.95800781,8.97216797,-85.32714844,0
0.87792969,0.58642578,-0.19775391,-163.57421875,3.29589844,-104.37011719,0
0.87792969,0.54052734,-0.16113281,-190.79589844,4.27246094,-118.22509766,0
0.91113281,0.45751953,-0.15820312,-208.92333984,28.86962891,-122.61962891,0
0.89257812,0.4375,-0.14990234,-220.33691406,55.48095703,-114.74609375,0
0.86865234,0.50732422,-0.10693359,-229.12597656,67.26074219,-103.63769531,0
0.86962891,0.55957031,-0.04345703,-229.00390625,74.40185547,-90.39306641,0
0.84960938,0.61669922,0.03613281,-217.40722656,70.49560547,-77.94189453,0
0.82226562,0.59130859,0.05810547,-208.55712891,68.29833984,-73.18115234,0
0.79882812,0.55273438,0.05078125,-207.03125,73.12011719,-71.77734375,0
0.81347656,0.55371094,0.03271484,-231.75048828,84.16748047,-69.76318359,0
0.65380859,0.62207031,-0.02441406,-270.56884766,119.26269531,-97.10693359,0
0.67773438,0.69335938,0.01855469,-368.59130859,173.33984375,-159.11865234,0
0.73046875,0.71289062,0.06103516,-450.31738281,205.62744141,-194.15283203,0
0.67089844,0.61523438,0.22949219,-488.70849609,206.35986328,-198.30322266,0
0.58447266,0.49804688,0.41943359,-453.61328125,164.0625,-179.01611328,0
0.56982422,0.40625,0.58447266,-358.09326172,98.75488281,-152.70996094,0
0.56396484,0.38916016,0.57226562,-263.42773438,67.32177734,-137.45117188,0
0.64501953,0.46435547,0.46240234,-204.83398438,59.02099609,-122.31445312,0
0.64892578,0.5703125,0.44580078,-194.76318359,64.75830078,-103.45458984,0
0.61572266,0.58300781,0.52001953,-199.21875,49.98779297,-88.13476562,0
0.54638672,0.52832031,0.63916016,-186.95068359,24.53613281,-80.87158203,0
0.49365234,0.47265625,0.71435547,-165.58837891,9.70458984,-83.67919922,0
0.51904297,0.46240234,0.68017578,-143.73779297,7.8125,-86.36474609,0
0.50341797,0.52734375,0.67871094,-138.12255859,8.30078125,-81.17675781,0
0.49121094,0.58642578,0.70361328,-138.671875,22.27783203,-81.72607422,0
0.52929688,0.55224609,0.65136719,-155.88378906,84.35058594,-84.83886719,0
0.50244141,0.41748047,0.79199219,-187.19482422,125.18310547,-40.10009766,0
0.45263672,0.26513672,0.93310547,-133.7890625,70.67871094,-25.26855469,0
0.42919922,0.21630859,0.91503906,-60.36376953,-18.24951172,-32.2265625,0
0.48095703,0.27734375,0.80029297,3.96728516,-37.53662109,-23.80371094,0
0.49267578,0.34423828,0.76660156,35.88867188,-25.14648438,-8.23974609,0
0.51025391,0.39306641,0.74951172,45.77636719,-18.98193359,8.91113281,0
0.48974609,0.40380859,0.68994141,50.41503906,-11.35253906,22.27783203,0
0.52294922,0.40087891,0.68505859,59.63134766,-3.84521484,38.02490234,0
0.52880859,0.41943359,0.68408203,75.80566406,6.22558594,59.20410156,0
0.51123047,0.43017578,0.66748047,92.52929688,17.02880859,77.75878906,0
0.49853516,0.42773438,0.67724609,108.3984375,23.62060547,91.24755859,0
0.4921875,0.42919922,0.68945312,129.8828125,23.49853516,102.05078125,0
0.48974609,0.42041016,0.68896484,149.78027344,23.4375,109.31396484,0
0.47412109,0.41455078,0.69433594,173.70605469,22.64404297,115.96679688,0
0.47460938,0.43554688,0.68310547,195.98388672,24.96337891,119.99511719,0
0.48730469,0.45556641,0.68603516,216.43066406,30.63964844,123.96240234,0
0.53320312,0.53613281,0.66943359,235.59570312,39.73388672,126.58691406,0
0.53613281,0.59033203,0.60595703,236.08398438,57.55615234,128.90625,0
0.55810547,0.59863281,0.62988281,219.23828125,90.20996094,125.36621094,0
0.51025391,0.57958984,0.61181641,223.87695312,114.19677734,123.59619141,0
0.52001953,0.57617188,0.61230469,226.5625,113.46435547,127.44140625,0
0.49560547,0.6015625,0.55908203,233.64257812,94.97070312,132.62939453,0
-0.17675781,0.54833984,0.42675781,232.78808594,37.90283203,99.67041016,0
-0.02539062,0.51318359,0.26269531,257.01904297,-206.78710938,-28.56445312,0
0.98583984,0.54394531,0.40087891,263.91601562,-255.98144531,-0.36621094,0
1.26074219,0.55273438,0.62451172,283.50830078,-164.67285156,129.63867188,0
0.61914062,0.63769531,0.42773438,318.359375,-53.03955078,170.83740234,0
0.57128906,0.61865234,0.2421875,331.66503906,-57.80029297,176.08642578,0
0.51025391,0.59863281,0.16308594,312.68310547,-107.17773438,171.69189453,0
0.29248047,0.61767578,0.00488281,310.91308594,-206.72607422,134.27734375,0
0.64306641,0.69189453,0.00097656,307.6171875,-275.93994141,117.00439453,0
1.05810547,0.79199219,-0.03173828,253.41796875,-261.84082031,127.62451172,0
1.23437500e+00,8.46679688e-01,-9.76562500e-04,162.78076172,-158.26416016,119.26269531,0
0.93359375,0.89111328,0.01171875,108.88671875,-39.85595703,67.19970703,0
0.84960938,0.84667969,-0.01904297,68.78662109,13.54980469,23.19335938,0
0.78027344,0.80126953,-0.06689453,35.64453125,12.39013672,-1.953125,0
0.77832031,0.78320312,-0.09472656,4.94384766,-10.62011719,-19.83642578,0
0.78564453,0.78955078,-0.0625,-26.85546875,-27.34375,-36.31591797,0
0.7890625,0.76171875,-0.01513672,-51.51367188,-24.65820312,-54.26025391,0
0.78662109,0.69775391,0.02587891,-75.86669922,-10.98632812,-64.39208984,0
0.76611328,0.67285156,0.03417969,-103.94287109,3.84521484,-68.54248047,0
0.74316406,0.67578125,0.03662109,-135.68115234,14.03808594,-73.91357422,0
0.73486328,0.76220703,0.02832031,-163.02490234,21.24023438,-80.32226562,0
0.72119141,0.93115234,0.04101562,-194.82421875,17.51708984,-105.10253906,0
0.74414062,0.89257812,0.09277344,-239.44091797,22.27783203,-137.32910156,0
0.75146484,0.77001953,0.11230469,-291.56494141,42.72460938,-152.40478516,0
0.69726562,0.66552734,0.12890625,-339.84375,67.32177734,-151.73339844,0
0.65136719,0.63378906,0.16113281,-375.30517578,80.93261719,-144.59228516,0
0.63818359,0.65820312,0.18066406,-398.4375,93.20068359,-138.06152344,0
0.56298828,0.70751953,0.24072266,-403.13720703,86.9140625,-129.45556641,0
0.51464844,0.72900391,0.40283203,-360.90087891,42.23632812,-125.61035156,0
0.515625,0.63671875,0.49316406,-299.56054688,15.01464844,-123.84033203,0
0.52392578,0.56005859,0.42089844,-255.73730469,3.47900391,-110.3515625,0
0.51220703,0.56396484,0.36572266,-230.89599609,-14.28222656,-101.44042969,0
0.48144531,0.58105469,0.42041016,-212.52441406,-35.40039062,-101.25732422,0
0.58789062,0.57128906,0.48876953,-163.69628906,-46.63085938,-75.07324219,0
0.54785156,0.55419922,0.52587891,-125.9765625,-22.82714844,-54.99267578,0
0.52050781,0.56982422,0.51220703,-109.19189453,-0.42724609,-46.38671875,0
0.45996094,0.60644531,0.52734375,-117.67578125,20.99609375,-46.93603516,0
0.51953125,0.62939453,0.53417969,-129.94384766,30.15136719,-42.54150391,0
0.51367188,0.6171875,0.55761719,-135.55908203,37.53662109,-32.83691406,0
0.49023438,0.57519531,0.60302734,-136.65771484,50.47607422,-21.60644531,0
0.48339844,0.53515625,0.62402344,-130.55419922,55.60302734,-14.22119141,0
0.45605469,0.51953125,0.67285156,-120.66650391,53.52783203,-5.73730469,0
0.45166016,0.46679688,0.70361328,-99.30419922,35.21728516,-1.89208984,0
0.45507812,0.41113281,0.73486328,-59.5703125,14.77050781,4.63867188,0
0.47753906,0.39697266,0.74609375,-5.98144531,3.90625,14.83154297,0
0.4765625,0.41503906,0.74414062,44.98291016,3.90625,27.70996094,0
0.46533203,0.41308594,0.72607422,87.890625,-1.15966797,38.14697266,0
0.45751953,0.42578125,0.69775391,121.15478516,-10.19287109,45.47119141,0
0.46582031,0.46972656,0.66943359,138.42773438,-15.74707031,52.18505859,0
0.47998047,0.53125,0.64404297,140.19775391,-16.05224609,57.6171875,0
0.47900391,0.57910156,0.65039062,128.05175781,-10.55908203,60.24169922,0
0.46630859,0.59326172,0.66210938,115.96679688,-4.33349609,55.48095703,0
0.47949219,0.625,0.65576172,106.50634766,1.28173828,49.07226562,0
0.46728516,0.62792969,0.62109375,103.45458984,3.29589844,42.72460938,0
0.56591797,0.57861328,0.62060547,119.07958984,3.29589844,49.74365234,0
0.55761719,0.57910156,0.60546875,147.21679688,14.46533203,65.49072266,0
0.54541016,0.55664062,0.57177734,176.14746094,25.63476562,80.32226562,0
0.53613281,0.55175781,0.55322266,190.97900391,28.13720703,88.25683594,0
0.53320312,0.57080078,0.5390625,222.90039062,28.74755859,104.55322266,0
0.51855469,0.60302734,0.51806641,253.35693359,22.64404297,115.47851562,0
0.52734375,0.62792969,0.47167969,279.23583984,8.54492188,119.01855469,0
0.47949219,0.6484375,0.27832031,281.67724609,-28.44238281,110.22949219,0
0.50097656,0.67236328,0.24462891,267.27294922,-81.90917969,105.95703125,0
0.27539062,0.72998047,0.15722656,243.04199219,-129.33349609,77.75878906,0
0.47705078,0.74023438,0.11279297,230.46875,-195.55664062,33.81347656,0
0.73632812,0.73486328,0.21630859,204.95605469,-186.21826172,18.98193359,0
0.97900391,0.75439453,0.30664062,190.24658203,-124.38964844,42.96875,0
0.76757812,0.74414062,0.296875,194.58007812,-20.26367188,66.95556641,0
0.69335938,0.66894531,0.1953125,221.74072266,4.39453125,80.01708984,0
0.70898438,0.69238281,0.14648438,248.84033203,21.24023438,89.23339844,0
0.76025391,0.72460938,0.02832031,246.03271484,51.14746094,89.23339844,0
0.75976562,0.76611328,-0.07666016,215.94238281,61.34033203,87.03613281,0
0.72802734,0.80029297,-0.12402344,167.48046875,45.41015625,79.28466797,0
0.71777344,0.84179688,-0.13476562,109.55810547,19.71435547,61.27929688,0
0.69091797,0.93945312,-0.11914062,49.07226562,-9.09423828,26.97753906,0
0.72851562,0.92431641,-0.05566406,-8.42285156,-28.50341797,-15.56396484,0
0.72314453,0.85888672,-0.02832031,-48.09570312,-34.05761719,-48.95019531,0
0.76123047,0.75732422,0.01806641,-78.24707031,-27.64892578,-66.77246094,0
0.76904297,0.69189453,0.06054688,-104.91943359,-8.11767578,-67.56591797,0
0.71777344,0.68652344,0.05908203,-124.51171875,9.765625,-63.65966797,0
0.69580078,0.69970703,0.06298828,-131.95800781,13.12255859,-58.47167969,0
0.67919922,0.71337891,0.08203125,-127.44140625,8.48388672,-52.55126953,0
0.69433594,0.72216797,0.0703125,-116.57714844,10.37597656,-47.60742188,0
0.6796875,0.75244141,0.06201172,-110.90087891,10.98632812,-45.22705078,0
0.69384766,0.78808594,0.06396484,-117.55371094,10.13183594,-49.37744141,0
0.69433594,0.82910156,0.06152344,-136.16943359,15.93017578,-58.65478516,0
0.66308594,0.86523438,0.08154297,-166.38183594,17.94433594,-77.39257812,0
0.66015625,0.81835938,0.12353516,-191.10107422,20.62988281,-96.74072266,0
0.61474609,0.86132812,0.13720703,-214.72167969,23.49853516,-111.26708984,0
0.56982422,0.92041016,0.17431641,-263.61083984,23.37646484,-146.24023438,0
0.59082031,0.83251953,0.22607422,-329.83398438,44.31152344,-181.09130859,0
0.55078125,0.69921875,0.23974609,-408.32519531,88.13476562,-198.2421875,0
0.4375,0.64648438,0.26806641,-478.14941406,156.00585938,-227.66113281,0
0.46337891,0.55908203,0.31494141,-480.83496094,142.21191406,-224.609375,0
0.47998047,0.51220703,0.51464844,-381.40869141,72.38769531,-180.78613281,0
0.41699219,0.48339844,0.66699219,-252.62451172,-36.62109375,-125.18310547,0
0.42529297,0.51367188,0.54296875,-168.27392578,-99.73144531,-92.34619141,0
0.50146484,0.61767578,0.50927734,-149.90234375,-63.72070312,-71.10595703,0
0.43994141,0.67724609,0.60986328,-147.03369141,-38.87939453,-65.97900391,0
0.46142578,0.61914062,0.68554688,-137.57324219,1.77001953,-56.09130859,0
0.4296875,0.56787109,0.64306641,-122.80273438,19.22607422,-42.84667969,0
0.39599609,0.54443359,0.65136719,-101.31835938,16.41845703,-31.86035156,0
0.35351562,0.54492188,0.66748047,-82.51953125,5.49316406,-29.35791016,0
0.37548828,0.54003906,0.66943359,-70.98388672,-4.94384766,-29.96826172,0
0.36230469,0.57421875,0.70751953,-72.265625,-2.50244141,-27.28271484,0
0.40039062,0.59472656,0.72753906,-122.31445312,31.25,-28.25927734,0
0.39648438,0.56738281,0.70654297,-152.58789062,77.39257812,-19.22607422,0
0.37548828,0.46533203,0.76220703,-159.79003906,84.89990234,-7.26318359,0
0.33007812,0.37304688,0.80615234,-120.84960938,63.17138672,-4.51660156,0
0.34863281,0.34082031,0.81445312,-50.29296875,17.63916016,-6.28662109,0
0.36816406,0.38916016,0.78515625,6.22558594,2.44140625,0.61035156,0
0.36669922,0.4453125,0.78466797,30.09033203,-1.03759766,12.08496094,0
0.35351562,0.46972656,0.77050781,37.29248047,1.03759766,20.32470703,0
0.34814453,0.48291016,0.77099609,39.30664062,0.,24.04785156,0
0.32861328,0.49707031,0.77099609,34.91210938,0.30517578,22.52197266,0
0.33203125,0.49755859,0.76123047,31.92138672,-0.24414062,18.31054688,0
0.33300781,0.51074219,0.77294922,31.73828125,-1.03759766,15.99121094,0
0.33691406,0.55126953,0.81591797,25.75683594,-1.40380859,12.81738281,0
0.35351562,0.546875,0.80029297,15.56396484,5.61523438,13.61083984,0
0.34912109,0.52294922,0.78710938,6.16455078,11.16943359,17.02880859,0
0.34228516,0.48828125,0.80126953,7.8125,10.19287109,20.56884766,0
0.33154297,0.43017578,0.82226562,27.89306641,3.11279297,24.84130859,0
0.34765625,0.42626953,0.78076172,61.88964844,-7.50732422,29.47998047,0
0.359375,0.43652344,0.76513672,90.8203125,-15.80810547,37.96386719,0
0.39013672,0.44384766,0.75585938,118.95751953,-22.39990234,50.10986328,0
0.4140625,0.44287109,0.71679688,146.05712891,-23.13232422,66.10107422,0
0.44091797,0.46923828,0.67236328,174.37744141,-24.23095703,86.79199219,0
0.37988281,0.51660156,0.64013672,197.99804688,-30.39550781,93.87207031,0
0.40283203,0.57910156,0.64013672,212.46337891,-31.18896484,90.39306641,0
0.48632812,0.65673828,0.60986328,213.8671875,-12.39013672,90.33203125,0
0.44726562,0.73583984,0.57275391,186.15722656,13.91601562,90.33203125,0
0.40820312,0.77392578,0.55419922,140.56396484,32.53173828,73.66943359,0
0.40722656,0.76025391,0.56005859,104.00390625,36.92626953,56.03027344,0
0.41259766,0.72802734,0.578125,87.21923828,32.89794922,43.27392578,0
0.43115234,0.68359375,0.58789062,86.79199219,26.30615234,37.90283203,0
0.45605469,0.63623047,0.59863281,105.34667969,19.40917969,42.90771484,0
0.45800781,0.59863281,0.60009766,128.90625,24.35302734,53.64990234,0
0.45605469,0.5859375,0.59326172,156.79931641,35.82763672,65.30761719,0
0.44189453,0.59619141,0.54003906,185.72998047,39.36767578,77.75878906,0
0.42773438,0.60742188,0.47802734,210.08300781,17.21191406,91.00341797,0
0.46484375,0.68164062,0.39013672,230.89599609,-47.11914062,108.76464844,0
0.49951172,0.71582031,0.37304688,240.66162109,-61.03515625,114.44091797,0
0.52490234,0.72021484,0.34179688,254.8828125,-61.82861328,115.84472656,0
0.56103516,0.72607422,0.29443359,263.30566406,-54.38232422,116.88232422,0
0.57470703,0.76660156,0.24072266,263.97705078,-38.81835938,116.27197266,0
0.62402344,0.80517578,0.10791016,256.46972656,-56.21337891,113.09814453,0
0.65869141,0.78955078,0.10742188,210.08300781,-33.93554688,104.12597656,0
0.56689453,0.77734375,0.03564453,194.76318359,-40.22216797,91.24755859,0
0.71240234,0.75488281,0.03320312,185.91308594,-70.55664062,99.85351562,0
0.73535156,0.71582031,0.046875,177.49023438,-56.03027344,103.75976562,0
0.68164062,0.71435547,0.03955078,174.68261719,-37.41455078,101.19628906,0
0.70556641,0.71777344,0.00390625,168.15185547,-23.62060547,93.99414062,0
0.71337891,0.72363281,-0.00390625,157.59277344,-5.43212891,80.81054688,0
0.72216797,0.73681641,-0.01171875,146.05712891,10.00976562,68.48144531,0
0.73486328,0.72900391,-0.02246094,139.46533203,26.42822266,55.23681641,0
0.74658203,0.74511719,-0.046875,126.09863281,37.47558594,43.39599609,0
0.82177734,0.75439453,-0.10839844,108.70361328,46.26464844,35.64453125,0
0.81103516,0.75,-0.13085938,82.70263672,50.84228516,24.65820312,0
0.76513672,0.75195312,-0.13623047,42.78564453,36.80419922,14.09912109,0
0.75439453,0.73730469,-0.12402344,3.23486328,9.52148438,8.54492188,0
0.76611328,0.67773438,-0.09277344,-13.61083984,-1.40380859,5.43212891,0
0.74755859,0.63720703,-0.06201172,-11.35253906,5.37109375,4.57763672,0
0.72314453,0.62792969,-0.06005859,-8.85009766,9.94873047,5.06591797,0
0.72851562,0.63574219,-0.0703125,-13.06152344,10.62011719,2.80761719,0
0.73730469,0.63525391,-0.06445312,-15.68603516,9.82666016,1.70898438,0
0.73486328,0.63330078,-0.06152344,-16.66259766,9.33837891,1.46484375,0
0.72998047,0.63964844,-0.06738281,-15.50292969,5.67626953,2.13623047,0
0.74462891,0.64697266,-0.06933594,-9.09423828,0.06103516,4.8828125,0
0.75146484,0.63623047,-0.06054688,0.79345703,-1.89208984,8.91113281,0
0.74023438,0.640625,-0.05273438,5.49316406,-2.86865234,10.68115234,0
0.75976562,0.64746094,-0.06298828,5.67626953,-2.50244141,10.49804688,0
0.77539062,0.65234375,-0.07226562,0.36621094,0.12207031,7.14111328,0
0.77636719,0.63916016,-0.06835938,-0.24414062,4.08935547,5.12695312,0
0.76074219,0.62304688,-0.05615234,6.28662109,12.87841797,4.82177734,0
0.73291016,0.62939453,-0.05908203,10.62011719,12.87841797,7.14111328,0
0.74267578,0.63525391,-0.06347656,11.77978516,7.26318359,9.09423828,0
0.75683594,0.62744141,-0.06396484,12.6953125,2.68554688,12.14599609,0
0.73779297,0.6328125,-0.05664062,10.80322266,-0.12207031,12.39013672,0
0.73974609,0.63330078,-0.05224609,10.86425781,-0.91552734,10.37597656,0
0.76074219,0.62744141,-0.04785156,13.54980469,0.42724609,11.04736328,0
0.75195312,0.62792969,-0.046875,17.578125,1.46484375,13.79394531,0
0.74462891,0.62695312,-0.04785156,20.38574219,0.91552734,15.80810547,0
0.75146484,0.63183594,-0.05761719,22.21679688,1.09863281,16.66259766,0
0.765625,0.63916016,-0.0703125,23.37646484,2.19726562,16.05224609,0
0.77441406,0.63427734,-0.07470703,24.84130859,2.13623047,17.15087891,0
0.77441406,0.62255859,-0.08886719,24.47509766,3.96728516,16.66259766,0
0.77441406,0.60839844,-0.09960938,21.78955078,5.859375,13.73291016,0
0.77050781,0.59375,-0.10839844,17.63916016,6.04248047,10.13183594,0
0.76953125,0.58642578,-0.11279297,11.47460938,4.69970703,6.40869141,0
0.77294922,0.58789062,-0.11181641,3.41796875,2.99072266,2.25830078,0
0.77880859,0.59814453,-0.10302734,0.24414062,0.,1.28173828,0
0.77880859,0.59130859,-0.08886719,5.67626953,-1.52587891,4.21142578,0
0.77636719,0.5859375,-0.08642578,9.39941406,2.01416016,3.78417969,0
0.78564453,0.58984375,-0.09521484,8.66699219,6.89697266,0.36621094,0
0.78125,0.60058594,-0.09814453,4.08935547,7.93457031,-2.19726562,0
0.76855469,0.61865234,-0.08496094,1.70898438,2.68554688,-0.79345703,0
0.76855469,0.62890625,-0.07128906,4.51660156,-3.17382812,3.29589844,0
0.77392578,0.62158203,-0.06884766,9.39941406,-1.58691406,4.21142578,0
0.77294922,0.61816406,-0.07421875,9.03320312,2.68554688,1.77001953,0
0.78515625,0.61914062,-0.09179688,-0.9765625,2.07519531,-1.89208984,0
0.78955078,0.61328125,-0.10302734,-12.39013672,0.9765625,-6.46972656,0
0.78222656,0.59960938,-0.09863281,-12.81738281,0.85449219,-6.53076172,0
0.77978516,0.59863281,-0.10058594,-12.39013672,1.28173828,-5.92041016,0
0.77294922,0.59667969,-0.09277344,-9.21630859,1.15966797,-3.72314453,0
0.75927734,0.59667969,-0.08007812,-6.77490234,0.48828125,-1.70898438,0
0.76123047,0.61035156,-0.07617188,-5.06591797,0.61035156,-1.03759766,0
0.77050781,0.62548828,-0.07373047,-3.17382812,0.48828125,-1.03759766,0
0.77441406,0.63183594,-0.06396484,0.85449219,-0.67138672,1.70898438,0
0.76025391,0.62890625,-0.05810547,4.39453125,-1.34277344,3.96728516,0
0.77636719,0.62548828,-0.04931641,5.73730469,-2.13623047,6.34765625,0
0.79345703,0.63476562,-0.06933594,2.25830078,1.22070312,5.31005859,0
0.78320312,0.63330078,-0.07666016,-3.90625,3.66210938,-0.42724609,0
0.79785156,0.63574219,-0.08837891,-12.75634766,1.52587891,-3.90625,0
0.8125,0.64941406,-0.11132812,-25.69580078,2.38037109,-12.51220703,0
0.83300781,0.66015625,-0.14013672,-39.97802734,5.55419922,-23.37646484,0
0.79443359,0.73632812,-0.1484375,-65.97900391,4.63867188,-44.67773438,0
0.76513672,0.83300781,-0.15039062,-109.61914062,-10.37597656,-77.81982422,0
0.77050781,0.92138672,-0.17333984,-165.77148438,-26.67236328,-128.90625,0
0.75634766,0.97070312,-0.15039062,-237.48779297,-37.29248047,-188.84277344,0
0.71777344,0.94335938,-0.07324219,-304.26025391,-49.62158203,-233.27636719,0
0.69335938,0.82373047,0.05078125,-340.94238281,-52.24609375,-251.34277344,0
0.67382812,0.67041016,0.15869141,-342.59033203,-23.13232422,-249.63378906,0
0.62207031,0.62109375,0.17919922,-310.85205078,36.56005859,-244.01855469,0
0.58837891,0.63232422,0.18359375,-291.62597656,81.78710938,-241.45507812,0
0.55224609,0.65917969,0.14208984,-295.65429688,59.87548828,-214.23339844,0
0.54248047,0.78613281,0.16699219,-311.34033203,27.40478516,-194.94628906,0
0.51416016,0.76269531,0.2265625,-349.48730469,36.86523438,-200.68359375,0
0.44287109,0.71630859,0.30322266,-383.66699219,66.52832031,-206.42089844,0
0.40136719,0.64257812,0.37792969,-377.07519531,57.86132812,-194.70214844,0
0.38525391,0.59033203,0.43847656,-325.98876953,30.88378906,-164.61181641,0
0.36816406,0.58447266,0.50585938,-248.41308594,-2.68554688,-126.40380859,0
0.38134766,0.58691406,0.5546875,-154.96826172,-58.65478516,-73.36425781,0
0.46289062,0.60449219,0.55908203,-83.61816406,-38.0859375,-45.77636719,0
0.43554688,0.62207031,0.53369141,-50.96435547,0.12207031,-26.48925781,0
0.39892578,0.65429688,0.53466797,-32.83691406,10.92529297,-7.69042969,0
0.37744141,0.66064453,0.55419922,-10.92529297,12.51220703,5.06591797,0
0.36474609,0.66064453,0.56005859,8.36181641,12.6953125,14.58740234,0
0.36035156,0.66845703,0.56787109,19.71435547,14.34326172,21.36230469,0
0.34277344,0.6796875,0.56689453,24.4140625,16.05224609,25.32958984,0
0.30566406,0.71728516,0.58789062,22.64404297,13.06152344,20.62988281,0
0.31542969,0.73779297,0.62158203,12.08496094,10.43701172,10.92529297,0
0.31884766,0.72900391,0.63574219,-0.73242188,10.07080078,3.54003906,0
0.31982422,0.71142578,0.63964844,-7.87353516,8.05664062,-0.54931641,0
0.32763672,0.70166016,0.6484375,-2.25830078,1.77001953,2.07519531,0
0.33398438,0.7109375,0.64404297,3.66210938,-0.67138672,4.69970703,0
0.33789062,0.71777344,0.62744141,6.53076172,-2.19726562,6.40869141,0
0.34326172,0.71679688,0.60351562,7.50732422,-2.13623047,7.20214844,0
0.34179688,0.72460938,0.58154297,5.12695312,-2.31933594,6.40869141,0
0.34765625,0.72070312,0.56835938,2.19726562,-2.50244141,4.27246094,0
0.35546875,0.70654297,0.55859375,1.77001953,-1.83105469,3.90625,0
0.35888672,0.69921875,0.54980469,3.60107422,-0.85449219,4.63867188,0
0.37011719,0.72607422,0.53662109,-0.61035156,2.68554688,3.96728516,0
0.36914062,0.7265625,0.54345703,-6.34765625,4.94384766,1.77001953,0
0.36279297,0.7265625,0.55224609,-12.39013672,6.89697266,-0.91552734,0
0.34960938,0.72119141,0.56103516,-17.70019531,6.95800781,-4.15039062,0
0.34863281,0.70996094,0.57080078,-23.25439453,6.59179688,-7.44628906,0
0.34228516,0.70556641,0.57861328,-29.66308594,6.8359375,-9.70458984,0
0.33447266,0.7109375,0.58544922,-38.69628906,6.34765625,-13.24462891,0
0.34082031,0.72412109,0.58544922,-50.72021484,5.67626953,-17.70019531,0
0.34228516,0.7265625,0.60009766,-62.86621094,3.84521484,-19.40917969,0
0.33300781,0.68505859,0.62402344,-63.04931641,1.64794922,-18.12744141,0
0.33447266,0.65576172,0.65283203,-49.19433594,0.42724609,-13.12255859,0
0.33642578,0.65283203,0.65136719,-32.47070312,0.36621094,-7.20214844,0
0.32958984,0.6640625,0.65820312,-20.87402344,1.34277344,-2.9296875,0
0.32617188,0.66357422,0.65185547,-17.76123047,2.80761719,-1.77001953,0
0.32519531,0.66015625,0.65673828,-17.63916016,2.31933594,-1.28173828,0
0.33544922,0.66601562,0.66503906,-18.18847656,2.74658203,-0.06103516,0
0.33544922,0.64257812,0.66699219,-21.05712891,9.94873047,4.27246094,0
0.33300781,0.64746094,0.65576172,-18.37158203,10.98632812,6.71386719,0
0.33496094,0.66845703,0.63574219,-19.22607422,10.37597656,7.32421875,0
0.33886719,0.67382812,0.62988281,-25.14648438,10.68115234,6.95800781,0
0.33740234,0.67089844,0.62841797,-28.80859375,11.53564453,6.22558594,0
0.33154297,0.67236328,0.62646484,-37.59765625,12.75634766,3.47900391,0
0.31494141,0.67578125,0.62597656,-50.35400391,11.59667969,-2.31933594,0
0.29736328,0.67333984,0.62744141,-64.94140625,5.79833984,-10.7421875,0
0.29003906,0.67724609,0.62988281,-80.74951172,-8.7890625,-20.01953125,0
0.29638672,0.67919922,0.61376953,-105.52978516,-23.37646484,-27.16064453,0
0.30908203,0.65966797,0.65673828,-127.68554688,-31.49414062,-28.93066406,0
0.33642578,0.60449219,0.73144531,-125.85449219,-35.40039062,-31.79931641,0
0.34570312,0.55908203,0.75244141,-114.13574219,-29.296875,-28.74755859,0
0.34277344,0.54394531,0.77441406,-99.48730469,-22.52197266,-22.82714844,0
0.34326172,0.55126953,0.83007812,-83.86230469,-10.07080078,-19.28710938,0
0.32910156,0.53662109,0.82421875,-76.171875,2.74658203,-18.06640625,0
0.31347656,0.51904297,0.81396484,-70.73974609,7.99560547,-16.05224609,0
0.30029297,0.52148438,0.79296875,-68.96972656,4.57763672,-15.56396484,0
0.29199219,0.49560547,0.79492188,-65.85693359,-4.51660156,-15.56396484,0
0.30322266,0.47216797,0.80664062,-56.51855469,-11.35253906,-15.74707031,0
0.31884766,0.4765625,0.80371094,-47.11914062,-12.45117188,-14.95361328,0
0.32568359,0.48144531,0.7890625,-42.54150391,-10.68115234,-13.18359375,0
0.33007812,0.48339844,0.77734375,-39.00146484,-9.33837891,-10.86425781,0
0.328125,0.47851562,0.765625,-34.79003906,-9.09423828,-8.48388672,0
0.33203125,0.421875,0.79638672,-5.12695312,-11.10839844,-0.79345703,0
0.3359375,0.40917969,0.80859375,22.70507812,-7.08007812,4.76074219,0
0.33544922,0.41210938,0.81640625,51.39160156,-3.72314453,12.08496094,0
0.32470703,0.42871094,0.81005859,75.80566406,-2.80761719,17.45605469,0
0.31982422,0.47851562,0.80664062,90.94238281,-6.77490234,19.71435547,0
0.32080078,0.52783203,0.79443359,92.59033203,-10.07080078,19.40917969,0
0.32470703,0.56640625,0.78466797,84.28955078,-11.23046875,16.6015625,0
0.33007812,0.60107422,0.77099609,67.32177734,-10.7421875,12.87841797,0
0.33447266,0.59082031,0.76367188,52.42919922,-10.98632812,10.07080078,0
0.33349609,0.57568359,0.76123047,48.70605469,-10.98632812,7.14111328,0
0.34130859,0.57861328,0.74023438,46.69189453,-8.60595703,5.24902344,0
0.34472656,0.57861328,0.71728516,44.73876953,-7.99560547,5.73730469,0
0.34667969,0.57617188,0.70507812,44.00634766,-8.05664062,6.22558594,0
0.34521484,0.5703125,0.70117188,44.18945312,-8.23974609,6.65283203,0
0.35009766,0.56738281,0.70068359,48.03466797,-8.97216797,7.87353516,0
0.35302734,0.56396484,0.69775391,54.80957031,-8.7890625,9.58251953,0
0.35351562,0.56005859,0.68408203,61.58447266,-8.36181641,11.53564453,0
0.35644531,0.56494141,0.68261719,68.78662109,-9.09423828,14.03808594,0
0.359375,0.58203125,0.68359375,76.47705078,-9.94873047,15.74707031,0
0.36669922,0.60546875,0.67529297,79.46777344,-8.91113281,16.35742188,0
0.37890625,0.64599609,0.66845703,77.27050781,-7.56835938,17.94433594,0
0.38330078,0.71728516,0.65771484,66.22314453,-4.39453125,16.05224609,0
0.37207031,0.73486328,0.63867188,45.34912109,-3.72314453,10.37597656,0
0.37402344,0.68408203,0.64257812,13.48876953,-4.8828125,2.07519531,0
0.37597656,0.65576172,0.63085938,9.765625,-3.72314453,1.64794922,0
0.37597656,0.64306641,0.62402344,9.82666016,-3.35693359,2.62451172,0
0.37646484,0.63769531,0.62353516,9.52148438,-2.74658203,2.50244141,0
0.37646484,0.640625,0.62304688,7.14111328,-1.22070312,1.40380859,0
0.37597656,0.63525391,0.62744141,5.55419922,-0.73242188,1.03759766,0
0.37451172,0.64306641,0.63525391,6.89697266,-0.36621094,1.58691406,0
0.37255859,0.65722656,0.63574219,7.87353516,0.12207031,1.83105469,0
0.37060547,0.65820312,0.63623047,7.50732422,-0.18310547,1.953125,0
0.37109375,0.65527344,0.64160156,8.30078125,-1.15966797,2.07519531,0
0.37402344,0.64892578,0.64697266,10.55908203,-1.64794922,2.56347656,0
0.37255859,0.64501953,0.640625,12.57324219,-1.953125,3.05175781,0
0.38037109,0.65087891,0.63574219,14.46533203,-2.62451172,3.35693359,0
0.38623047,0.66992188,0.62109375,12.20703125,-2.25830078,3.41796875,0
0.38818359,0.68310547,0.62109375,7.50732422,-1.64794922,2.56347656,0
0.39111328,0.67822266,0.61914062,3.96728516,-0.79345703,1.09863281,0
0.38476562,0.66601562,0.61523438,0.67138672,0.06103516,0.9765625,0
0.38134766,0.65917969,0.61328125,1.15966797,-0.18310547,1.34277344,0
0.38134766,0.65869141,0.6171875,4.51660156,-0.06103516,0.91552734,0
0.38134766,0.66455078,0.61669922,4.57763672,1.03759766,0.91552734,0
0.38085938,0.66552734,0.62158203,2.56347656,0.24414062,0.85449219,0
0.38037109,0.65820312,0.62402344,0.73242188,0.30517578,0.42724609,0
0.37890625,0.65576172,0.62744141,0.18310547,0.67138672,0.91552734,0
0.375,0.66064453,0.6328125,0.18310547,0.36621094,1.15966797,0
0.37353516,0.65625,0.63085938,0.06103516,0.,0.30517578,0
0.37402344,0.6484375,0.62548828,1.03759766,-0.48828125,0.,0
0.38134766,0.65185547,0.62597656,2.9296875,0.,0.24414062,0
0.38916016,0.67089844,0.62597656,3.47900391,0.30517578,0.91552734,0
0.39111328,0.68359375,0.62060547,-0.73242188,0.42724609,0.30517578,0
0.390625,0.67236328,0.62402344,-3.96728516,-0.30517578,-0.36621094,0
0.38916016,0.66796875,0.62695312,-3.96728516,0.,0.06103516,0
0.37402344,0.66552734,0.61474609,-4.63867188,0.85449219,0.61035156,0
0.3671875,0.66113281,0.60302734,-6.34765625,1.28173828,-0.24414062,0
0.37207031,0.66210938,0.609375,-7.32421875,2.01416016,-1.46484375,0
0.38330078,0.65527344,0.62011719,-6.71386719,2.31933594,-1.28173828,0
0.39208984,0.65380859,0.62109375,-6.46972656,3.41796875,-1.09863281,0
0.39990234,0.66601562,0.62353516,-6.89697266,4.27246094,-0.79345703,0
0.39501953,0.66552734,0.62695312,-8.30078125,5.31005859,0.30517578,0
0.38769531,0.66943359,0.61816406,-7.93457031,6.65283203,1.46484375,0
0.37841797,0.67285156,0.60888672,-8.17871094,7.01904297,2.01416016,0
0.37304688,0.671875,0.61425781,-9.03320312,6.71386719,0.91552734,0
0.3671875,0.67431641,0.61474609,-13.12255859,7.93457031,-1.28173828,0
0.36474609,0.69921875,0.61474609,-21.36230469,9.03320312,-6.28662109,0
0.36572266,0.72509766,0.63378906,-38.20800781,10.55908203,-15.50292969,0
0.35400391,0.71337891,0.66748047,-54.62646484,10.13183594,-25.02441406,0
0.33203125,0.67382812,0.6640625,-56.51855469,-1.40380859,-37.78076172,0
0.34619141,0.64697266,0.68652344,-54.26025391,-9.09423828,-43.39599609,0
0.328125,0.66601562,0.69726562,-57.55615234,-9.88769531,-47.05810547,0
0.29931641,0.68066406,0.72265625,-68.23730469,-9.58251953,-54.44335938,0
0.30029297,0.67822266,0.72167969,-82.94677734,-7.87353516,-69.58007812,0
0.30908203,0.64892578,0.71972656,-103.33251953,3.41796875,-74.46289062,0
0.33984375,0.58984375,0.69433594,-106.56738281,3.90625,-74.03564453,0
0.32080078,0.55908203,0.69970703,-102.17285156,2.9296875,-74.27978516,0
0.34179688,0.52246094,0.70361328,-88.13476562,-6.28662109,-71.53320312,0
0.33740234,0.51904297,0.72949219,-73.97460938,-13.97705078,-60.48583984,0
0.31738281,0.50683594,0.7109375,-59.69238281,-24.78027344,-52.61230469,0
0.26757812,0.54492188,0.74365234,-54.93164062,-11.29150391,-36.43798828,0
0.27832031,0.52880859,0.66992188,-41.80908203,-23.07128906,-37.96386719,0
0.28417969,0.54199219,0.69189453,-32.34863281,-34.72900391,-27.58789062,0
0.33886719,0.53320312,0.70947266,-24.47509766,-36.86523438,-18.5546875,0
0.39208984,0.54003906,0.73583984,-11.71875,-23.13232422,-15.80810547,0
0.35253906,0.54199219,0.74023438,-2.80761719,-7.62939453,-9.765625,0
0.35449219,0.53125,0.74804688,1.58691406,-1.34277344,-2.01416016,0
0.35107422,0.50146484,0.76757812,9.94873047,4.76074219,7.38525391,0
0.33935547,0.48925781,0.76513672,26.06201172,11.65771484,16.23535156,0
0.32177734,0.48388672,0.75634766,45.22705078,13.54980469,24.47509766,0
0.33300781,0.48388672,0.7578125,69.82421875,15.86914062,32.77587891,0
0.33935547,0.49414062,0.75439453,81.54296875,18.31054688,37.41455078,0
0.33740234,0.53369141,0.72607422,97.29003906,23.37646484,45.8984375,0
0.34667969,0.56396484,0.70458984,101.80664062,27.09960938,53.52783203,0
0.35302734,0.57666016,0.68652344,105.71289062,32.53173828,60.30273438,0
0.35449219,0.59765625,0.64941406,114.50195312,36.37695312,65.91796875,0
0.34521484,0.62060547,0.65039062,119.87304688,42.66357422,73.79150391,0
0.34716797,0.63964844,0.66601562,124.81689453,56.51855469,80.56640625,0
0.33251953,0.66064453,0.66845703,127.07519531,68.42041016,81.29882812,0
0.31738281,0.66503906,0.66113281,126.83105469,75.98876953,80.44433594,0
0.31738281,0.67626953,0.64648438,124.75585938,79.71191406,80.13916016,0
0.31787109,0.68798828,0.64111328,123.41308594,81.23779297,80.38330078,0
0.31542969,0.67871094,0.62451172,125.42724609,76.59912109,82.88574219,0
0.29833984,0.69824219,0.63134766,123.65722656,68.42041016,83.0078125,0
0.32080078,0.70947266,0.63378906,121.94824219,70.37353516,78.18603516,0
0.32861328,0.72998047,0.61914062,115.84472656,71.10595703,72.57080078,0
0.31787109,0.73730469,0.60693359,105.40771484,64.69726562,68.90869141,0
0.31298828,0.74511719,0.60742188,98.57177734,54.62646484,65.55175781,0
0.30664062,0.75830078,0.59521484,93.99414062,45.10498047,61.09619141,0
0.31201172,0.76171875,0.57714844,87.64648438,39.12353516,57.73925781,0
0.33349609,0.75048828,0.56152344,83.43505859,39.0625,55.60302734,0
0.359375,0.75292969,0.54541016,83.49609375,45.83740234,55.72509766,0
0.390625,0.76855469,0.51074219,83.61816406,52.49023438,59.75341797,0
0.42382812,0.796875,0.47900391,80.50537109,65.4296875,64.27001953,0
0.39648438,0.75,0.50683594,79.58984375,75.01220703,67.13867188,0
0.37158203,0.73193359,0.48388672,74.58496094,61.27929688,69.21386719,0
0.37988281,0.75048828,0.46875,71.71630859,49.98779297,70.55664062,0
0.37890625,0.77832031,0.45654297,72.69287109,40.52734375,70.43457031,0
0.3671875,0.7890625,0.44091797,68.359375,32.28759766,65.61279297,0
0.35742188,0.8046875,0.44580078,56.82373047,25.32958984,52.97851562,0
0.38574219,0.81884766,0.46484375,45.77636719,20.08056641,42.17529297,0
0.39697266,0.82177734,0.47314453,35.70556641,17.27294922,34.11865234,0
0.40087891,0.81298828,0.47216797,27.46582031,14.09912109,26.79443359,0
0.40283203,0.80517578,0.46777344,19.47021484,10.49804688,19.28710938,0
0.41210938,0.80273438,0.46582031,14.03808594,9.03320312,15.99121094,0
0.40429688,0.78662109,0.46142578,14.09912109,6.59179688,16.96777344,0
0.38085938,0.76318359,0.45507812,16.05224609,3.17382812,16.66259766,0
0.38476562,0.76123047,0.45117188,17.578125,0.24414062,15.44189453,0
0.41699219,0.77197266,0.44726562,17.82226562,1.09863281,14.34326172,0
0.44091797,0.77246094,0.43994141,17.08984375,2.99072266,14.58740234,0
0.44140625,0.76220703,0.43310547,15.50292969,4.8828125,14.70947266,0
0.43457031,0.75878906,0.43408203,13.85498047,4.57763672,14.95361328,0
0.42382812,0.75878906,0.42529297,13.18359375,3.05175781,15.13671875,0
0.41992188,0.76660156,0.421875,12.20703125,3.90625,13.30566406,0
0.40869141,0.76904297,0.4296875,11.59667969,2.99072266,11.29150391,0
0.40722656,0.77246094,0.43359375,10.92529297,1.28173828,8.97216797,0
0.42333984,0.77880859,0.43603516,9.33837891,0.42724609,6.59179688,0
0.43066406,0.78125,0.43554688,5.859375,0.85449219,4.45556641,0
0.43017578,0.78027344,0.43798828,0.73242188,0.79345703,1.953125,0
0.43701172,0.77587891,0.43652344,-3.17382812,0.61035156,0.85449219,0
0.43261719,0.77050781,0.44238281,-2.80761719,0.30517578,1.40380859,0
0.42138672,0.765625,0.44970703,1.46484375,-2.56347656,4.21142578,0
0.42919922,0.76855469,0.44091797,4.27246094,-2.50244141,5.79833984,0
0.4296875,0.77099609,0.43017578,3.29589844,0.,4.57763672,0
0.4296875,0.76708984,0.421875,-0.54931641,0.42724609,2.19726562,0
0.43164062,0.77294922,0.42724609,-4.33349609,-1.34277344,0.36621094,0
0.44042969,0.7734375,0.43652344,-3.54003906,-1.52587891,0.30517578,0
0.44580078,0.77294922,0.4296875,-0.42724609,1.77001953,0.85449219,0
0.45068359,0.77294922,0.41748047,1.64794922,4.82177734,1.77001953,0
0.44482422,0.77099609,0.40820312,0.79345703,4.08935547,2.62451172,0
0.44042969,0.76416016,0.40917969,-0.91552734,1.58691406,1.953125,0
0.42285156,0.75390625,0.43115234,-2.19726562,-0.12207031,0.67138672,0
0.42089844,0.75927734,0.44580078,-3.60107422,-1.52587891,-0.36621094,0
0.43066406,0.765625,0.44970703,-2.01416016,-1.953125,0.42724609,0
0.43017578,0.77001953,0.45263672,1.70898438,-0.36621094,2.25830078,0
0.43164062,0.77587891,0.44970703,2.74658203,0.9765625,3.29589844,0
0.43847656,0.77978516,0.44335938,2.50244141,1.953125,3.90625,0
0.43408203,0.77441406,0.44287109,4.21142578,2.99072266,5.00488281,0
0.43164062,0.76513672,0.4375,7.38525391,2.25830078,6.28662109,0
0.43212891,0.75878906,0.43017578,9.94873047,0.67138672,7.08007812,0
0.43261719,0.75732422,0.42675781,11.16943359,-0.67138672,7.50732422,0
0.43359375,0.75927734,0.42041016,12.20703125,-1.28173828,7.32421875,0
0.43017578,0.76074219,0.42041016,11.96289062,-2.86865234,6.89697266,0
0.43994141,0.77050781,0.41796875,9.765625,-2.07519531,5.12695312,0
0.44140625,0.7734375,0.42333984,7.56835938,-1.34277344,3.47900391,0
0.43457031,0.76904297,0.43164062,7.8125,-3.78417969,4.39453125,0
0.44433594,0.76464844,0.42919922,10.43701172,-5.859375,6.59179688,0
0.44824219,0.7734375,0.43261719,13.671875,-4.02832031,8.66699219,0
0.44433594,0.77490234,0.42138672,12.6953125,-6.59179688,10.25390625,0
0.44873047,0.76855469,0.41699219,13.00048828,-8.66699219,11.90185547,0
0.45068359,0.75732422,0.41064453,18.31054688,-5.18798828,13.48876953,0
0.44873047,0.75390625,0.40380859,27.46582031,-3.41796875,16.72363281,0
0.45654297,0.75195312,0.38964844,35.33935547,-9.33837891,24.23095703,0
0.46728516,0.76220703,0.37744141,38.51318359,-14.09912109,28.99169922,0
0.47900391,0.76708984,0.38671875,41.87011719,-13.06152344,31.18896484,0
0.47851562,0.76611328,0.38330078,41.87011719,-13.06152344,32.47070312,0
0.48291016,0.77099609,0.38134766,38.63525391,-12.26806641,31.55517578,0
0.47949219,0.76806641,0.38378906,37.47558594,-12.20703125,32.16552734,0
0.47412109,0.75830078,0.36865234,40.22216797,-14.83154297,34.54589844,0
0.47460938,0.75292969,0.35058594,43.9453125,-18.31054688,36.56005859,1
0.46923828,0.75439453,0.34521484,46.99707031,-25.02441406,39.12353516,1
0.47363281,0.75683594,0.34521484,48.64501953,-36.92626953,43.9453125,1
0.47998047,0.74755859,0.34912109,49.98779297,-45.59326172,46.81396484,1
0.49316406,0.71972656,0.33496094,70.61767578,-48.46191406,53.34472656,1
0.50830078,0.71044922,0.32421875,84.71679688,-54.13818359,63.90380859,1
0.53613281,0.71289062,0.29833984,98.81591797,-59.14306641,75.50048828,1
0.57763672,0.73486328,0.22167969,121.45996094,-49.49951172,88.25683594,1
0.60302734,0.74267578,0.18408203,133.60595703,-50.29296875,95.27587891,1
0.65332031,0.75341797,0.12695312,139.22119141,-44.25048828,94.48242188,1
0.69482422,0.76464844,0.08203125,131.77490234,-21.85058594,78.49121094,1
0.71289062,0.77099609,0.05664062,120.84960938,2.56347656,58.10546875,1
0.70703125,0.76611328,0.07275391,105.04150391,16.72363281,40.83251953,1
0.67089844,0.7734375,0.1015625,84.9609375,15.07568359,34.24072266,1
0.64208984,0.75927734,0.11132812,72.02148438,6.04248047,35.15625,1
0.62792969,0.74511719,0.11035156,67.87109375,-2.01416016,38.39111328,1
0.64208984,0.73583984,0.1015625,69.27490234,-4.33349609,39.85595703,1
0.65576172,0.73339844,0.1015625,70.61767578,-2.80761719,40.52734375,1
0.65917969,0.72705078,0.1015625,7.14111328e+01,6.10351562e-02,4.02221680e+01,1
0.66943359,0.72216797,0.09472656,73.97460938,2.25830078,41.44287109,1
0.67871094,0.7109375,0.07861328,79.40673828,5.61523438,44.55566406,1
0.68457031,0.70214844,0.05566406,84.16748047,10.43701172,46.56982422,1
0.68945312,0.70068359,0.04492188,85.69335938,12.57324219,47.24121094,1
0.70556641,0.70361328,0.01611328,84.89990234,15.99121094,47.42431641,1
0.71826172,0.70361328,-0.01123047,80.44433594,16.23535156,46.44775391,1
0.72509766,0.69335938,-0.03613281,72.44873047,14.34326172,42.48046875,1
0.74365234,0.68066406,-0.05078125,59.38720703,10.86425781,35.82763672,1
0.74267578,0.67480469,-0.04394531,45.28808594,5.37109375,30.63964844,1
0.73828125,0.67529297,-0.03076172,33.50830078,-0.67138672,27.40478516,1
0.72851562,0.66943359,-0.01367188,28.38134766,-5.67626953,27.77099609,1
0.72412109,0.65283203,-0.01269531,29.41894531,-7.44628906,29.60205078,1
0.73046875,0.65380859,-0.02783203,28.99169922,-6.53076172,28.93066406,1
0.73291016,0.65917969,-0.03369141,24.65820312,-5.859375,25.75683594,1
0.74511719,0.66503906,-0.03710938,20.93505859,-4.57763672,21.60644531,1
0.7578125,0.6640625,-0.03613281,19.34814453,-3.35693359,20.26367188,1
0.76269531,0.65673828,-0.03515625,15.25878906,-2.56347656,18.73779297,1
0.76660156,0.64990234,-0.03417969,8.91113281,-2.80761719,17.82226562,1
0.77490234,0.63818359,-0.03564453,2.56347656,-2.38037109,19.89746094,1
0.74951172,0.63671875,-0.04882812,-2.50244141,-3.05175781,20.75195312,1
0.75390625,0.63378906,-0.04248047,-4.63867188,-3.96728516,21.484375,1
0.75390625,0.63769531,-0.04638672,-5.12695312,-3.11279297,20.08056641,1
0.7421875,0.64306641,-0.03613281,-3.41796875,-3.17382812,18.73779297,1
0.74169922,0.63916016,-0.03564453,0.67138672,-3.84521484,17.88330078,1
0.75439453,0.62646484,-0.04541016,2.9296875,-3.47900391,15.25878906,1
0.76660156,0.61816406,-0.05371094,3.90625,-1.28173828,12.02392578,1
0.77587891,0.62207031,-0.04541016,5.06591797,1.03759766,10.92529297,1
0.78955078,0.62109375,-0.04199219,6.46972656,2.07519531,14.46533203,1
0.77685547,0.62207031,-0.03417969,5.24902344,1.03759766,18.12744141,1
0.76953125,0.61914062,-0.04052734,1.52587891,-0.79345703,18.98193359,1
0.77734375,0.61230469,-0.04394531,0.30517578,0.,18.06640625,1
0.76904297,0.60546875,-0.04833984,-0.06103516,0.9765625,16.47949219,1
0.76025391,0.60351562,-0.04443359,0.18310547,1.28173828,14.46533203,1
0.76416016,0.60693359,-0.03564453,0.73242188,1.09863281,13.48876953,1
0.77490234,0.61181641,-0.03320312,1.09863281,1.52587891,13.24462891,1
0.78027344,0.61572266,-0.03125,0.18310547,1.28173828,12.81738281,1
0.78857422,0.60888672,-0.03564453,-2.44140625,1.953125,12.26806641,1
0.78613281,0.60107422,-0.046875,-2.99072266,3.66210938,12.20703125,1
0.78417969,0.59960938,-0.05029297,-1.64794922,4.15039062,13.36669922,1
0.78173828,0.60302734,-0.04248047,-1.64794922,1.83105469,14.70947266,1
0.79394531,0.60058594,-0.04052734,-2.19726562,0.54931641,16.23535156,1
0.79248047,0.59814453,-0.03955078,-3.78417969,0.,15.625,1
0.79833984,0.59814453,-0.04101562,-5.79833984,1.83105469,11.77978516,1
0.79980469,0.60058594,-0.04101562,-7.56835938,3.84521484,7.93457031,1
0.79052734,0.60595703,-0.03662109,-8.48388672,4.63867188,4.69970703,1
0.78173828,0.60693359,-0.03515625,-7.75146484,3.84521484,2.31933594,1
0.78857422,0.60253906,-0.03320312,-6.59179688,2.62451172,0.67138672,1
0.79541016,0.60009766,-0.03125,-6.04248047,2.50244141,-0.9765625,1
0.79785156,0.6015625,-0.02832031,-5.31005859,2.19726562,-1.58691406,1
0.79589844,0.59814453,-0.02783203,-4.94384766,2.01416016,-1.83105469,1
0.78857422,0.59375,-0.03125,-4.21142578,2.01416016,-1.89208984,1
0.78857422,0.59179688,-0.03808594,-4.45556641,2.56347656,-2.44140625,1
0.78857422,0.58935547,-0.04003906,-6.89697266,3.72314453,-5.12695312,1
0.78417969,0.58642578,-0.03417969,-9.70458984,4.39453125,-8.42285156,1
0.78857422,0.58300781,-0.02783203,-10.49804688,5.37109375,-10.62011719,1
0.78955078,0.58349609,-0.01904297,-9.58251953,5.79833984,-10.68115234,1
0.79345703,0.58789062,-0.01416016,-9.21630859,5.67626953,-10.19287109,1
0.79541016,0.60205078,-0.0078125,-6.34765625,4.21142578,-7.20214844,1
0.78710938,0.60986328,-0.00830078,-2.74658203,2.86865234,-3.78417969,1
0.77929688,0.61181641,-0.01318359,-2.13623047,1.40380859,-2.56347656,1
0.77929688,0.61425781,-0.01660156,-3.66210938,1.28173828,-3.11279297,1
0.78466797,0.61572266,-0.01904297,-5.31005859,2.50244141,-5.06591797,1
0.78955078,0.61328125,-0.01660156,-5.98144531,2.99072266,-5.859375,1
0.79101562,0.60644531,-0.01806641,-4.76074219,2.44140625,-4.76074219,1
0.78857422,0.59619141,-0.01611328,-2.80761719,1.58691406,-2.99072266,1
0.78710938,0.58691406,-0.02050781,-2.13623047,1.89208984,-2.86865234,1
0.78662109,0.58935547,-0.02246094,-1.953125,2.38037109,-3.54003906,1
0.78173828,0.59082031,-0.015625,-1.46484375,2.38037109,-3.35693359,1
0.77978516,0.59765625,-0.01220703,-1.40380859,2.9296875,-3.54003906,1
0.78271484,0.60351562,-0.01416016,-2.25830078,3.47900391,-4.69970703,1
0.78417969,0.60449219,-0.01513672,-3.35693359,4.39453125,-6.04248047,1
0.77636719,0.60693359,-0.00390625,-3.35693359,4.33349609,-5.67626953,1
0.77148438,0.61181641,0.00439453,0.42724609,2.13623047,-1.15966797,1
7.75878906e-01,6.11328125e-01,4.88281250e-04,5.24902344,-0.36621094,4.51660156,1
0.78027344,0.60986328,-0.00292969,8.23974609,-1.34277344,7.75146484,1
0.78662109,0.61376953,-0.01171875,8.30078125,-1.15966797,8.05664062,1
0.78564453,0.61181641,-0.00927734,5.55419922,-1.15966797,6.46972656,1
0.78466797,0.59667969,-0.01367188,4.15039062,-0.48828125,5.12695312,1
0.77978516,0.58251953,-0.01904297,6.40869141,0.54931641,5.67626953,1
0.7734375,0.57275391,-0.0234375,9.39941406,0.85449219,7.01904297,1
0.76855469,0.57421875,-0.02001953,11.71875,-0.85449219,10.13183594,1
0.77050781,0.57373047,-0.01660156,17.94433594,-3.78417969,16.66259766,1
0.77587891,0.57128906,-0.02099609,26.24511719,-4.63867188,22.21679688,1
0.77880859,0.57470703,-0.01757812,32.77587891,-3.72314453,25.08544922,1
0.78417969,0.56640625,-0.02978516,35.09521484,-5.92041016,28.56445312,1
0.78466797,0.55712891,-0.03417969,36.01074219,-7.08007812,32.59277344,1
0.78613281,0.56884766,-0.03222656,35.88867188,-11.35253906,39.48974609,1
0.79345703,0.57958984,-0.03564453,34.11865234,-19.83642578,47.91259766,1
0.83300781,0.58935547,-0.02978516,34.79003906,-19.34814453,50.29296875,1
0.83740234,0.60546875,-0.04394531,36.49902344,-14.6484375,48.76708984,1
0.8359375,0.59765625,-0.05859375,34.05761719,-16.17431641,48.21777344,1
0.84228516,0.5859375,-0.05615234,31.06689453,-19.34814453,48.09570312,1
0.84765625,0.56689453,-0.05615234,34.54589844,-17.51708984,50.29296875,1
0.84082031,0.56005859,-0.06640625,38.75732422,-18.67675781,54.99267578,1
0.84472656,0.54443359,-0.07080078,41.74804688,-21.97265625,60.66894531,1
0.84423828,0.52392578,-0.08007812,44.98291016,-24.04785156,65.4296875,1
0.84423828,0.49707031,-0.09765625,41.87011719,-23.49853516,65.30761719,1
0.85595703,0.48339844,-0.11132812,42.29736328,-20.99609375,65.00244141,1
0.85644531,0.47119141,-0.12158203,44.55566406,-20.69091797,66.46728516,1
0.85839844,0.45849609,-0.13134766,43.15185547,-23.86474609,69.76318359,1
0.86621094,0.46142578,-0.13232422,42.17529297,-26.24511719,72.75390625,1
0.88818359,0.45068359,-0.13964844,42.35839844,-25.08544922,71.22802734,1
0.90185547,0.43603516,-0.14746094,40.28320312,-18.5546875,63.96484375,1
0.90966797,0.43408203,-0.15820312,34.54589844,-12.87841797,54.07714844,1
0.90917969,0.42822266,-0.16064453,29.17480469,-9.46044922,45.53222656,1
0.90527344,0.41210938,-0.16357422,25.51269531,-5.98144531,38.0859375,1
0.90185547,0.39697266,-0.17529297,22.33886719,-4.27246094,32.47070312,1
0.8984375,0.38574219,-0.18115234,21.24023438,-4.08935547,30.02929688,1
0.89404297,0.38232422,-0.18896484,19.71435547,-5.79833984,26.73339844,1
0.90087891,0.38867188,-0.18457031,14.46533203,-8.60595703,20.62988281,1
0.90966797,0.39697266,-0.19335938,5.859375,-11.84082031,11.29150391,1
0.90087891,0.43164062,-0.25097656,-16.41845703,-27.09960938,-6.10351562,1
0.87207031,0.44628906,-0.34277344,-53.89404297,-65.18554688,-31.49414062,1
0.83105469,0.43457031,-0.35253906,-87.64648438,-120.91064453,-54.19921875,1
0.76660156,0.38867188,-0.33691406,-95.39794922,-152.95410156,-80.68847656,1
0.73828125,0.38964844,-0.29589844,-93.75,-164.97802734,-88.74511719,1
1.06152344,0.37109375,-0.15917969,-101.5625,-152.22167969,-69.15283203,1
0.95166016,0.37841797,-0.18896484,-78.73535156,-70.67871094,-66.58935547,1
0.84619141,0.46728516,-0.23583984,-79.52880859,-30.70068359,-78.18603516,1
0.82470703,0.50683594,-0.26269531,-90.02685547,-19.59228516,-93.38378906,1
0.78808594,0.5625,-0.27490234,-93.68896484,-25.87890625,-99.12109375,1
0.76708984,0.57666016,-0.28027344,-108.58154297,-49.8046875,-101.98974609,1
0.89697266,0.52587891,-0.26123047,-99.91455078,-44.49462891,-103.08837891,1
0.86474609,0.63525391,-0.23925781,-83.19091797,2.50244141,-115.53955078,1
0.84082031,0.69384766,-0.28515625,-76.59912109,21.54541016,-125.24414062,1
0.73828125,0.74414062,-0.32226562,-77.51464844,11.47460938,-144.71435547,1
0.70996094,0.70751953,-0.31738281,-103.21044922,-13.30566406,-170.28808594,1
0.71582031,0.70458984,-0.24414062,-124.75585938,-13.30566406,-196.10595703,1
0.77148438,0.71826172,-0.12597656,-158.32519531,-9.09423828,-192.32177734,1
0.6796875,0.58984375,-0.09765625,-161.19384766,-4.21142578,-169.31152344,1
0.67236328,0.64257812,-0.06347656,-152.40478516,12.26806641,-145.08056641,1
0.62695312,0.65136719,-0.08105469,-148.92578125,26.55029297,-131.53076172,1
0.57373047,0.72558594,-0.05664062,-147.27783203,18.24951172,-106.75048828,1
0.55761719,0.83203125,-0.02587891,-129.27246094,-2.62451172,-90.33203125,1
0.52441406,0.9453125,-0.04003906,-107.421875,-29.66308594,-83.74023438,1
0.48193359,1.02392578,-0.06884766,-107.66601562,-45.77636719,-107.97119141,1
0.48535156,0.9921875,-0.01318359,-118.53027344,-23.49853516,-162.41455078,1
0.5859375,0.93310547,0.08740234,-148.25439453,23.86474609,-193.84765625,1
0.578125,0.83300781,0.09619141,-172.66845703,50.96435547,-185.60791016,1
0.51660156,0.77050781,0.07861328,-205.56640625,45.53222656,-155.76171875,1
0.46240234,0.74804688,0.05371094,-243.59130859,35.88867188,-131.71386719,1
0.40673828,0.80126953,0.07373047,-283.14208984,50.47607422,-134.46044922,1
0.33789062,0.85400391,0.12207031,-325.80566406,58.95996094,-144.47021484,1
0.34375,0.83496094,0.17675781,-352.78320312,22.64404297,-130.12695312,1
0.33837891,0.76171875,0.30029297,-339.72167969,26.30615234,-125.18310547,1
0.31054688,0.74951172,0.37353516,-289.24560547,31.00585938,-114.07470703,1
0.29394531,0.76074219,0.42822266,-225.89111328,29.84619141,-103.88183594,1
0.26757812,0.79003906,0.48828125,-169.921875,38.57421875,-97.47314453,1
0.26416016,0.82226562,0.515625,-137.75634766,50.23193359,-98.6328125,1
0.28320312,0.80273438,0.52148438,-126.22070312,52.91748047,-94.78759766,1
0.26611328,0.77197266,0.54345703,-125.73242188,51.57470703,-78.125,1
0.23291016,0.75195312,0.58154297,-121.70410156,48.828125,-65.18554688,1
0.19287109,0.75878906,0.58398438,-113.46435547,40.22216797,-57.67822266,1
0.11767578,0.83300781,0.61767578,-115.41748047,37.59765625,-61.03515625,1
0.15722656,0.80322266,0.60009766,-128.47900391,38.51318359,-72.08251953,1
0.19970703,0.74658203,0.58740234,-145.08056641,35.52246094,-67.56591797,1
0.20361328,0.69433594,0.58984375,-150.26855469,39.61181641,-57.55615234,1
0.18261719,0.66992188,0.60205078,-142.45605469,47.36328125,-45.83740234,1
0.1484375,0.65673828,0.61181641,-128.35693359,56.03027344,-41.56494141,1
0.13476562,0.63525391,0.63574219,-115.47851562,51.14746094,-35.03417969,1
0.12304688,0.609375,0.68994141,-90.63720703,34.54589844,-28.19824219,1
0.10205078,0.59570312,0.76513672,-57.25097656,19.28710938,-21.05712891,1
0.11376953,0.61181641,0.78173828,-26.12304688,8.66699219,-13.48876953,1
0.12548828,0.62744141,0.78271484,-11.71875,7.01904297,-4.69970703,1
0.11279297,0.625,0.76904297,-3.96728516,10.49804688,5.43212891,1
0.09472656,0.60839844,0.74804688,6.34765625,13.06152344,13.97705078,1
0.10595703,0.59228516,0.74121094,14.6484375,15.44189453,23.07128906,1
0.09765625,0.56787109,0.72119141,13.61083984,19.59228516,34.60693359,1
0.13916016,0.56884766,0.70556641,9.64355469,24.65820312,49.92675781,1
0.16015625,0.54736328,0.68310547,15.13671875,24.96337891,64.81933594,1
0.16992188,0.54980469,0.66015625,25.81787109,18.98193359,89.47753906,1
0.18701172,0.59960938,0.66748047,30.63964844,17.02880859,111.87744141,1
0.10058594,0.61279297,0.66943359,27.09960938,5.43212891,110.41259766,1
0.18896484,0.63574219,0.66845703,38.87939453,23.01025391,121.94824219,1
0.23291016,0.66894531,0.64550781,53.7109375,43.33496094,140.74707031,1
0.19433594,0.68847656,0.59765625,63.96484375,43.39599609,161.25488281,1
0.17480469,0.72607422,0.609375,67.56591797,24.90234375,162.41455078,1
0.17480469,0.75,0.63671875,63.04931641,4.94384766,148.92578125,1
0.16503906,0.72021484,0.66259766,46.875,-0.48828125,133.17871094,1
0.13769531,0.67724609,0.64746094,35.82763672,-9.70458984,123.41308594,1
0.20117188,0.65820312,0.62841797,37.53662109,-39.61181641,121.09375,1
0.2265625,0.65869141,0.609375,55.35888672,-77.45361328,121.27685547,1
0.22216797,0.70019531,0.64013672,64.08691406,-109.55810547,124.08447266,1
0.27197266,0.73876953,0.68554688,61.40136719,-120.30029297,112.79296875,1
0.35644531,0.75097656,0.70703125,47.8515625,-114.44091797,101.80664062,1
0.3984375,0.74902344,0.70263672,42.54150391,-96.49658203,90.57617188,1
0.41845703,0.75927734,0.67724609,35.52246094,-83.55712891,74.46289062,1
0.421875,0.75537109,0.63134766,26.97753906,-72.32666016,57.55615234,1
0.44580078,0.734375,0.60644531,22.94921875,-55.72509766,44.61669922,1
0.46142578,0.69824219,0.60595703,23.25439453,-28.01513672,43.09082031,1
0.38378906,0.67578125,0.49609375,38.0859375,-15.80810547,63.78173828,1
0.40087891,0.72167969,0.46923828,34.48486328,-51.57470703,58.53271484,1
0.44287109,0.69189453,0.56054688,34.54589844,-66.04003906,47.05810547,1
0.64550781,0.66699219,0.56298828,48.88916016,-53.46679688,45.53222656,1
0.60693359,0.67822266,0.58203125,54.74853516,-17.51708984,39.24560547,1
0.57910156,0.74902344,0.54638672,52.97851562,3.54003906,35.70556641,1
0.51367188,0.78027344,0.50341797,23.68164062,7.8125,23.92578125,1
0.48974609,0.78369141,0.5078125,-19.77539062,3.54003906,11.16943359,1
0.48339844,0.73779297,0.56152344,-48.21777344,-0.9765625,1.03759766,1
0.50683594,0.68554688,0.58544922,-53.89404297,-0.24414062,-7.8125,1
0.50732422,0.6640625,0.58251953,-51.51367188,1.52587891,-20.20263672,1
0.50830078,0.67919922,0.58886719,-46.56982422,-4.94384766,-26.30615234,1
0.5234375,0.69384766,0.60351562,-30.94482422,-15.93017578,-37.84179688,1
0.52441406,0.71484375,0.59375,-20.5078125,-23.55957031,-56.51855469,1
0.52783203,0.71484375,0.58154297,-16.47949219,-25.75683594,-62.86621094,1
0.51318359,0.72851562,0.53564453,-21.85058594,-20.87402344,-58.47167969,1
0.48730469,0.73925781,0.51074219,-41.80908203,-16.11328125,-54.87060547,1
0.46728516,0.71582031,0.51708984,-61.82861328,-12.45117188,-51.33056641,1
0.46142578,0.6875,0.53515625,-71.59423828,-9.27734375,-46.14257812,1
0.38525391,0.73095703,0.53613281,-57.12890625,-7.99560547,-55.78613281,1
0.25976562,0.64697266,0.58007812,-25.87890625,17.33398438,-48.15673828,1
0.38476562,0.55126953,0.47851562,-36.01074219,-2.80761719,29.05273438,1
0.48046875,0.59619141,0.43994141,-53.83300781,-37.96386719,39.18457031,1
0.57519531,0.63720703,0.59814453,-57.92236328,-65.24658203,44.31152344,1
0.47607422,0.60791016,0.640625,-44.921875,-42.05322266,21.30126953,1
0.44042969,0.63623047,0.59765625,-55.11474609,-29.60205078,12.45117188,1
0.46386719,0.67333984,0.59375,-81.11572266,-31.12792969,21.17919922,1
0.53125,0.61523438,0.65527344,-92.28515625,-36.56005859,13.73291016,1
0.55419922,0.56591797,0.66894531,-80.68847656,-33.203125,-0.24414062,1
0.55957031,0.57470703,0.66308594,-64.33105469,-31.61621094,-2.44140625,1
0.46044922,0.55224609,0.63232422,-54.93164062,-31.25,-7.44628906,1
0.49755859,0.55126953,0.63085938,-50.41503906,-35.33935547,-5.31005859,1
0.51513672,0.58154297,0.59179688,-45.8984375,-33.44726562,4.21142578,1
0.56738281,0.61376953,0.59521484,-43.82324219,-31.12792969,10.68115234,1
0.63574219,0.63525391,0.62744141,-43.57910156,-31.31103516,21.42333984,1
0.53662109,0.58447266,0.56396484,-34.97314453,-31.12792969,13.48876953,1
0.51904297,0.58886719,0.53759766,-28.25927734,-33.87451172,19.77539062,1
0.59228516,0.59375,0.5703125,-24.65820312,-32.34863281,28.86962891,1
0.53369141,0.51757812,0.54736328,-14.70947266,-39.67285156,22.76611328,1
0.55761719,0.53076172,0.53076172,-8.7890625,-28.44238281,15.50292969,1
0.54345703,0.52050781,0.53417969,-8.97216797,-17.88330078,9.70458984,1
0.55761719,0.53857422,0.55712891,-3.60107422,-8.17871094,13.48876953,1
0.51220703,0.56201172,0.55517578,1.09863281,-3.35693359,25.08544922,1
0.52734375,0.58056641,0.58056641,-3.47900391,-2.68554688,39.00146484,1
0.57763672,0.56933594,0.62890625,-2.9296875,-6.16455078,45.53222656,1
0.57910156,0.58447266,0.63037109,-3.11279297,-10.49804688,54.99267578,1
0.58544922,0.57666016,0.63085938,-7.50732422,-12.75634766,64.453125,1
0.61083984,0.54394531,0.64794922,-9.70458984,-15.19775391,65.91796875,1
0.62011719,0.52392578,0.59619141,-19.16503906,-5.98144531,61.64550781,1
0.64648438,0.52294922,0.60595703,-40.95458984,6.59179688,56.640625,1
0.62792969,0.5078125,0.61767578,-62.68310547,13.42773438,48.64501953,1
0.64404297,0.44873047,0.63134766,-69.88525391,19.95849609,38.51318359,1
0.56005859,0.41748047,0.63427734,-66.46728516,17.39501953,26.55029297,1
0.54101562,0.40136719,0.66015625,-49.43847656,-0.36621094,21.30126953,1
0.56884766,0.41308594,0.64697266,-35.27832031,-10.68115234,17.70019531,1
0.5859375,0.40722656,0.63525391,-30.15136719,-17.76123047,18.12744141,1
0.60498047,0.43164062,0.60791016,-34.97314453,-10.7421875,21.30126953,1
0.62646484,0.4453125,0.62646484,-39.79492188,-4.39453125,23.68164062,1
0.62255859,0.43847656,0.64697266,-43.27392578,0.61035156,20.32470703,1
0.64355469,0.45800781,0.65283203,-43.82324219,11.16943359,17.08984375,1
0.48388672,0.56787109,0.61621094,-45.10498047,67.07763672,25.45166016,1
0.52246094,0.48828125,0.625,-52.06298828,98.51074219,62.92724609,1
0.55224609,0.38037109,0.68115234,-62.98828125,106.62841797,84.9609375,1
0.57470703,0.27929688,0.72851562,-58.59375,89.72167969,94.11621094,1
0.56884766,0.23144531,0.7578125,-35.21728516,46.20361328,88.62304688,1
0.61621094,0.20458984,0.79589844,-14.6484375,-20.44677734,73.97460938,1
0.68017578,0.20263672,0.74072266,-9.94873047,-52.61230469,33.38623047,1
0.63476562,0.27392578,0.67578125,-22.88818359,-37.47558594,3.54003906,1
0.61181641,0.28271484,0.69970703,-29.60205078,-13.73291016,-0.85449219,1
0.63476562,0.27587891,0.72802734,-31.73828125,-1.09863281,-3.90625,1
0.63476562,0.30761719,0.75341797,-32.10449219,0.42724609,-6.34765625,1
0.62548828,0.33837891,0.76464844,-30.76171875,-5.79833984,-4.82177734,1
0.62158203,0.34326172,0.75390625,-30.70068359,-13.36669922,-1.28173828,1
0.63427734,0.35742188,0.73193359,-34.36279297,-16.47949219,1.28173828,1
0.6015625,0.375,0.71582031,-52.30712891,-0.36621094,-16.90673828,1
0.65234375,0.27001953,0.69482422,-58.95996094,-0.61035156,-13.91601562,1
0.67041016,0.21777344,0.63964844,-50.04882812,6.22558594,-12.08496094,1
0.65673828,0.24755859,0.64013672,-38.33007812,20.56884766,-7.87353516,1
0.61816406,0.2734375,0.67578125,-34.91210938,31.43310547,-2.50244141,1
0.61914062,0.27099609,0.69287109,-34.42382812,34.30175781,-0.67138672,1
0.60302734,0.25292969,0.69433594,-34.42382812,36.74316406,-2.99072266,1
0.62841797,0.24804688,0.68945312,-21.72851562,29.90722656,1.77001953,1
0.61523438,0.26904297,0.71582031,-9.58251953,26.24511719,6.10351562,1
0.60693359,0.27587891,0.73632812,-5.55419922,27.03857422,8.11767578,1
0.61035156,0.27832031,0.74365234,-5.92041016,29.90722656,10.19287109,1
0.61132812,0.27587891,0.76220703,-14.28222656,42.60253906,9.09423828,1
0.58105469,0.28466797,0.78466797,-15.50292969,45.95947266,14.83154297,1
0.56835938,0.26269531,0.78857422,-22.03369141,42.41943359,11.65771484,1
0.59228516,0.26171875,0.79443359,-27.77099609,47.36328125,11.65771484,1
0.55371094,0.26464844,0.82373047,-37.109375,52.55126953,11.77978516,1
0.57568359,0.25634766,0.81591797,-47.42431641,59.38720703,12.51220703,1
0.55273438,0.2421875,0.81982422,-54.38232422,71.65527344,14.16015625,1
0.54199219,0.22314453,0.80859375,-54.99267578,76.53808594,14.89257812,1
0.51220703,0.18994141,0.81347656,-45.59326172,66.65039062,13.12255859,1
0.48632812,0.16015625,0.80957031,-28.80859375,38.75732422,8.17871094,1
0.50927734,0.16259766,0.81640625,-9.46044922,15.38085938,5.79833984,1
0.52685547,0.19238281,0.83544922,0.24414062,9.33837891,6.77490234,1
0.52880859,0.21240234,0.84130859,-1.15966797,11.65771484,7.93457031,1
0.51757812,0.22070312,0.85009766,-8.60595703,16.78466797,5.92041016,1
0.51708984,0.20898438,0.85693359,-17.45605469,20.75195312,5.49316406,1
0.52539062,0.20117188,0.84570312,-24.53613281,30.2734375,9.09423828,1
0.5,0.203125,0.84619141,-29.47998047,34.30175781,7.50732422,1
0.50341797,0.19726562,0.84667969,-30.82275391,38.57421875,6.95800781,1
0.49755859,0.18701172,0.84472656,-32.10449219,44.06738281,7.14111328,1
0.48388672,0.17822266,0.85058594,-32.04345703,47.8515625,7.93457031,1
0.47216797,0.16357422,0.85449219,-30.51757812,48.828125,7.14111328,1
0.45996094,0.14111328,0.84472656,-24.65820312,42.54150391,5.31005859,1
0.45019531,0.13183594,0.8515625,-16.72363281,30.39550781,3.41796875,1
0.45800781,0.13964844,0.86572266,-7.75146484,17.27294922,2.25830078,1
0.45556641,0.14648438,0.87890625,-1.52587891,6.53076172,1.28173828,1
0.46728516,0.15673828,0.89355469,1.09863281,1.52587891,0.85449219,1
0.46972656,0.15771484,0.89697266,0.85449219,1.09863281,1.15966797,1
0.46875,0.15527344,0.89160156,0.61035156,0.48828125,1.70898438,1
0.46728516,0.15527344,0.88330078,0.9765625,-0.36621094,2.07519531,1
0.46533203,0.15673828,0.87792969,0.18310547,-0.18310547,2.19726562,1
0.46289062,0.15966797,0.87109375,-1.953125,1.40380859,2.38037109,1
0.46679688,0.16113281,0.86523438,-2.99072266,2.56347656,2.56347656,1
0.46484375,0.15478516,0.86132812,-3.17382812,3.90625,2.74658203,1
0.46289062,0.15283203,0.85498047,-1.70898438,4.15039062,2.99072266,1
0.46044922,0.15087891,0.85546875,0.42724609,3.84521484,2.9296875,1
0.46240234,0.15380859,0.86083984,2.31933594,3.66210938,3.41796875,1
0.46826172,0.15917969,0.8671875,3.17382812,4.27246094,4.45556641,1
0.47021484,0.16259766,0.87255859,2.9296875,5.37109375,5.49316406,1
0.46972656,0.16308594,0.87695312,2.68554688,6.28662109,6.28662109,1
0.46386719,0.15771484,0.87353516,3.17382812,6.95800781,6.77490234,1
0.45166016,0.15527344,0.86425781,8.54492188,7.93457031,6.8359375,1
0.41894531,0.15136719,0.83984375,17.45605469,7.32421875,2.9296875,1
0.44921875,0.14697266,0.88085938,20.44677734,0.36621094,-0.06103516,1
0.46777344,0.14599609,0.90478516,13.36669922,-3.17382812,2.68554688,1
0.44873047,0.15380859,0.88134766,9.88769531,-2.38037109,4.15039062,1
0.41992188,0.15527344,0.85009766,14.28222656,-3.11279297,-0.06103516,1
0.38916016,0.15722656,0.82421875,38.69628906,-4.21142578,-15.25878906,1
0.44873047,0.14355469,0.85498047,54.26025391,-18.24951172,-20.01953125,1
0.49951172,0.21630859,0.89355469,41.74804688,-21.11816406,-2.86865234,1
0.51757812,0.24316406,0.90771484,24.53613281,-12.14599609,1.64794922,1
0.50878906,0.24365234,0.87402344,11.04736328,-0.30517578,4.76074219,1
0.4765625,0.22998047,0.83691406,13.24462891,4.51660156,1.28173828,1
0.48193359,0.20703125,0.85302734,15.625,1.64794922,0.9765625,1
0.47705078,0.20410156,0.85009766,13.85498047,-3.05175781,3.47900391,1
0.46289062,0.21386719,0.84423828,14.70947266,-3.11279297,3.84521484,1
0.4609375,0.21240234,0.85107422,14.40429688,-2.74658203,2.86865234,1
0.45361328,0.20556641,0.84960938,14.16015625,-1.77001953,0.91552734,1
0.45068359,0.19921875,0.85302734,16.17431641,-3.17382812,-0.24414062,1
0.46044922,0.20800781,0.86035156,19.95849609,-9.765625,-1.70898438,1
0.47216797,0.21386719,0.86816406,20.87402344,-12.08496094,-1.46484375,1
0.48681641,0.22802734,0.87841797,18.92089844,-12.57324219,-0.67138672,1
0.48486328,0.23388672,0.87597656,15.31982422,-10.49804688,-0.42724609,1
0.4765625,0.234375,0.86132812,14.89257812,-10.55908203,-1.03759766,1
0.4765625,0.234375,0.84912109,15.93017578,-12.02392578,-1.40380859,1
0.46972656,0.23242188,0.83740234,17.45605469,-10.62011719,-2.31933594,1
0.4765625,0.23681641,0.84277344,18.43261719,-11.04736328,-3.29589844,1
0.48779297,0.23046875,0.83251953,17.76123047,-13.00048828,-2.07519531,1
0.4765625,0.23046875,0.81787109,22.03369141,-15.19775391,-1.70898438,1
0.47949219,0.23632812,0.81738281,26.97753906,-19.04296875,-2.99072266,1
0.48828125,0.24414062,0.82226562,28.68652344,-20.32470703,-3.17382812,1
0.48974609,0.25634766,0.81982422,28.99169922,-18.67675781,-3.72314453,1
0.50537109,0.27001953,0.82763672,27.52685547,-17.08984375,-3.17382812,1
0.52050781,0.28173828,0.83935547,21.30126953,-11.65771484,-1.22070312,1
0.52783203,0.29296875,0.84082031,12.6953125,-4.15039062,0.54931641,1
0.5234375,0.29394531,0.8359375,4.33349609,3.23486328,1.89208984,1
0.50830078,0.28271484,0.82568359,-0.48828125,6.71386719,2.31933594,1
0.49755859,0.27246094,0.81933594,-0.91552734,6.22558594,2.80761719,1
0.49072266,0.26904297,0.81933594,0.42724609,4.63867188,2.62451172,1
0.49072266,0.26757812,0.8203125,2.25830078,2.86865234,1.89208984,1
0.49023438,0.25927734,0.82177734,4.57763672,0.42724609,1.22070312,1
0.4921875,0.25878906,0.83056641,6.46972656,-1.40380859,0.91552734,1
0.49853516,0.26806641,0.83789062,6.34765625,-1.953125,0.91552734,1
0.49707031,0.26953125,0.84130859,4.21142578,-1.46484375,0.91552734,1
0.49462891,0.27148438,0.83740234,2.68554688,-1.70898438,0.73242188,1
0.49121094,0.27099609,0.83154297,2.07519531,-2.19726562,0.24414062,1
0.49169922,0.27197266,0.82568359,2.31933594,-2.86865234,-0.18310547,1
0.49951172,0.27587891,0.82324219,1.70898438,-1.953125,-0.12207031,1
0.50097656,0.27246094,0.81933594,0.30517578,0.,-0.36621094,1
0.50878906,0.27392578,0.81738281,-0.30517578,1.09863281,-0.12207031,1
0.51318359,0.27587891,0.81835938,-1.70898438,2.44140625,1.03759766,1
0.50146484,0.26904297,0.81347656,-2.19726562,3.05175781,1.22070312,1
0.4921875,0.26416016,0.81005859,0.73242188,0.91552734,0.9765625,1
0.49121094,0.26855469,0.81542969,3.60107422,-1.58691406,0.67138672,1
0.49365234,0.27392578,0.82177734,4.27246094,-2.13623047,0.36621094,1
0.5,0.27685547,0.82666016,3.05175781,-1.28173828,0.24414062,1
0.50341797,0.27636719,0.83056641,0.42724609,1.40380859,0.48828125,1
0.49804688,0.27197266,0.82666016,-1.15966797,2.68554688,0.54931641,1
0.4921875,0.26318359,0.82226562,-0.18310547,1.46484375,0.18310547,1
0.49023438,0.26123047,0.8203125,2.07519531,-1.22070312,-0.30517578,1
0.49365234,0.265625,0.82080078,3.54003906,-3.11279297,-0.61035156,1
0.49609375,0.27490234,0.82080078,3.17382812,-2.80761719,-0.73242188,1
0.49902344,0.28076172,0.81787109,2.25830078,-1.40380859,-0.85449219,1
0.50830078,0.28662109,0.81933594,0.9765625,0.48828125,-0.54931641,1
0.50732422,0.27587891,0.81835938,0.12207031,2.01416016,-0.36621094,1
0.50390625,0.26757812,0.81640625,0.91552734,1.34277344,0.,1
0.50048828,0.27148438,0.81738281,1.953125,-0.36621094,0.30517578,1
0.50439453,0.28417969,0.82177734,1.28173828,-0.06103516,1.09863281,1
0.50439453,0.29101562,0.82519531,-2.31933594,3.84521484,1.83105469,1
0.49462891,0.27636719,0.81933594,-4.76074219,7.20214844,1.64794922,1
0.48876953,0.26416016,0.81787109,-3.60107422,6.22558594,0.9765625,1
0.49462891,0.26416016,0.82226562,-1.34277344,3.60107422,0.06103516,1
0.49951172,0.26611328,0.82421875,0.42724609,1.52587891,0.,1
0.49804688,0.26855469,0.82568359,1.34277344,0.48828125,0.79345703,1
0.48974609,0.26904297,0.82470703,1.70898438,0.24414062,0.42724609,1
0.48876953,0.27197266,0.82958984,2.99072266,-0.06103516,-0.06103516,1
0.49023438,0.27001953,0.82763672,2.68554688,-1.40380859,-0.18310547,1
0.48632812,0.26318359,0.82324219,2.31933594,-1.89208984,-1.40380859,1
0.49853516,0.27246094,0.82128906,3.60107422,-2.44140625,-2.19726562,1
0.49951172,0.27490234,0.8203125,4.21142578,-3.05175781,-1.40380859,1
0.50292969,0.27978516,0.82177734,3.29589844,-2.50244141,-0.24414062,1
0.50195312,0.28271484,0.82080078,1.40380859,-0.67138672,-0.30517578,1
0.50146484,0.28662109,0.81835938,0.30517578,0.91552734,-0.12207031,1
0.49707031,0.28613281,0.81445312,-0.48828125,1.83105469,0.42724609,1
0.49121094,0.27587891,0.81347656,-0.18310547,2.19726562,0.06103516,1
0.49267578,0.27050781,0.81396484,1.22070312,1.83105469,-0.73242188,1
0.49707031,0.2734375,0.81982422,2.56347656,0.91552734,-0.48828125,1
0.49755859,0.27490234,0.82421875,2.44140625,0.61035156,0.,1
0.49462891,0.27587891,0.82519531,1.58691406,0.9765625,-0.12207031,1
0.49707031,0.28076172,0.82714844,1.03759766,1.15966797,0.,1
0.49707031,0.28271484,0.82568359,0.06103516,1.64794922,0.24414062,1
0.49023438,0.2734375,0.82275391,0.,1.40380859,-0.12207031,1
0.49072266,0.27099609,0.82080078,1.09863281,0.12207031,-0.54931641,1
0.49462891,0.27734375,0.82421875,1.953125,-1.03759766,-0.73242188,1
0.50292969,0.28515625,0.82519531,0.73242188,-0.30517578,-0.30517578,1
0.50097656,0.28173828,0.82275391,-0.9765625,1.58691406,-0.12207031,1
0.49462891,0.27832031,0.81591797,-0.48828125,1.40380859,0.18310547,1
0.48876953,0.27636719,0.81542969,1.03759766,-0.12207031,0.30517578,1
0.48730469,0.27587891,0.81933594,2.13623047,-1.09863281,0.,1
0.49072266,0.27441406,0.81933594,2.56347656,-1.46484375,-0.54931641,1
0.49511719,0.27880859,0.82080078,2.44140625,-1.64794922,-0.85449219,1
0.49755859,0.27832031,0.82324219,1.64794922,-0.85449219,-0.91552734,1
0.49707031,0.27685547,0.82177734,1.46484375,-0.54931641,-0.73242188,1
0.49462891,0.27880859,0.82080078,2.13623047,-1.34277344,-0.54931641,1
0.49365234,0.27783203,0.82275391,2.56347656,-1.77001953,-0.54931641,1
0.49414062,0.27929688,0.82226562,3.17382812,-2.44140625,-0.85449219,1
0.49365234,0.28027344,0.81787109,4.27246094,-4.08935547,-0.91552734,1
0.49365234,0.28564453,0.81787109,5.24902344,-5.67626953,-0.85449219,1
0.49511719,0.28710938,0.81347656,5.92041016,-5.98144531,-0.67138672,1
0.49902344,0.28955078,0.81542969,6.53076172,-6.71386719,-0.61035156,1
0.50097656,0.28710938,0.81494141,6.04248047,-6.34765625,-0.67138672,1
0.50244141,0.28173828,0.81689453,5.859375,-5.92041016,-0.85449219,1
0.50048828,0.27832031,0.81542969,6.77490234,-7.01904297,-1.03759766,1
0.49902344,0.27685547,0.81201172,8.42285156,-9.39941406,-1.15966797,1
0.49609375,0.27783203,0.80664062,11.29150391,-11.77978516,-1.40380859,1
0.49951172,0.28808594,0.80664062,14.58740234,-14.52636719,-1.58691406,1
0.49609375,0.28857422,0.79736328,17.94433594,-16.90673828,-1.46484375,1
0.49560547,0.28955078,0.79052734,23.13232422,-20.93505859,-1.89208984,1
0.49902344,0.29003906,0.78710938,28.93066406,-26.3671875,-3.11279297,1
0.51318359,0.29296875,0.78271484,34.97314453,-30.57861328,-3.78417969,1
0.53564453,0.31298828,0.79345703,35.94970703,-29.47998047,-2.62451172,1
0.53955078,0.32421875,0.79101562,31.31103516,-27.03857422,-1.953125,1
0.52050781,0.31640625,0.77441406,29.17480469,-23.55957031,-3.11279297,1
0.52783203,0.3359375,0.77441406,29.72412109,-20.62988281,-7.99560547,1
0.56835938,0.32861328,0.76953125,29.96826172,-19.77539062,-1.46484375,1
0.53466797,0.32958984,0.74511719,33.08105469,-18.49365234,2.74658203,1
0.51611328,0.33544922,0.74316406,38.14697266,-17.21191406,0.36621094,1
0.53662109,0.34619141,0.7578125,39.0625,-18.98193359,-2.62451172,1
0.55371094,0.34521484,0.75292969,35.58349609,-17.63916016,0.9765625,1
0.57617188,0.37402344,0.74365234,32.59277344,-10.7421875,5.73730469,1
0.56738281,0.37744141,0.74462891,26.61132812,-5.00488281,7.08007812,1
0.55126953,0.36816406,0.74121094,25.02441406,-2.80761719,7.50732422,1
0.55126953,0.36816406,0.734375,25.75683594,-0.36621094,6.53076172,1
0.57226562,0.37451172,0.72314453,32.34863281,0.67138672,10.00976562,1
0.56347656,0.35351562,0.69042969,47.97363281,-0.67138672,18.67675781,1
0.20800781,0.13964844,0.58251953,99.67041016,48.46191406,76.29394531,1
0.49902344,0.3515625,0.64599609,155.2734375,70.86181641,54.44335938,1
0.74365234,0.46777344,0.72607422,127.56347656,16.05224609,25.87890625,1
0.83691406,0.32666016,0.68652344,117.61474609,-7.75146484,-26.85546875,1
0.70751953,0.40820312,0.66699219,115.60058594,35.27832031,-34.24072266,1
0.52490234,0.53222656,0.77587891,95.94726562,63.04931641,-4.51660156,1
0.45898438,0.51757812,0.77050781,66.95556641,63.35449219,-8.30078125,1
0.453125,0.47753906,0.74169922,56.51855469,57.80029297,-7.14111328,1
0.46679688,0.49804688,0.75,52.24609375,53.16162109,-9.64355469,1
0.49121094,0.50097656,0.73681641,50.29296875,55.17578125,-16.96777344,1
0.49365234,0.48095703,0.71289062,51.45263672,58.22753906,-18.5546875,1
0.47949219,0.50537109,0.68945312,56.27441406,61.82861328,-14.28222656,1
0.46777344,0.53173828,0.68945312,52.30712891,60.18066406,-14.03808594,1
0.44726562,0.54931641,0.70361328,45.53222656,56.33544922,-9.70458984,1
0.43505859,0.54980469,0.71386719,42.48046875,48.70605469,-2.99072266,1
0.42724609,0.54736328,0.71337891,42.90771484,37.04833984,2.86865234,1
0.46826172,0.53076172,0.66796875,57.25097656,33.56933594,10.31494141,1
0.45996094,0.53173828,0.67578125,58.59375,43.02978516,11.35253906,1
0.41699219,0.54931641,0.69775391,56.88476562,43.39599609,13.97705078,1
0.38964844,0.59716797,0.71728516,50.65917969,31.55517578,13.79394531,1
0.40478516,0.63085938,0.71484375,38.20800781,25.14648438,7.44628906,1
0.40771484,0.61181641,0.71044922,23.13232422,26.97753906,2.80761719,1
0.38720703,0.58935547,0.72607422,16.23535156,27.40478516,0.48828125,1
0.37255859,0.58496094,0.73632812,14.58740234,20.69091797,1.77001953,1
0.375,0.58740234,0.734375,11.23046875,11.35253906,3.11279297,1
0.38330078,0.57910156,0.73388672,6.89697266,2.68554688,3.35693359,1
0.38330078,0.55712891,0.72900391,10.25390625,-6.28662109,5.43212891,1
0.36035156,0.55664062,0.72607422,14.89257812,-21.78955078,8.17871094,1
0.37451172,0.58105469,0.71435547,11.23046875,-34.05761719,11.96289062,1
0.40136719,0.59326172,0.70947266,4.33349609,-41.44287109,13.30566406,1
0.4375,0.58886719,0.68603516,0.85449219,-40.28320312,12.87841797,1
0.46289062,0.59179688,0.66113281,3.17382812,-32.89794922,11.10839844,1
0.484375,0.59423828,0.65820312,3.72314453,-22.4609375,7.26318359,1
0.48876953,0.59326172,0.65966797,0.06103516,-6.8359375,1.22070312,1
0.46142578,0.58447266,0.65771484,-6.46972656,6.10351562,-2.80761719,1
0.43701172,0.56933594,0.65625,-9.27734375,9.94873047,-4.15039062,1
0.43554688,0.55517578,0.64941406,-5.92041016,8.48388672,-4.63867188,1
0.43896484,0.56396484,0.65429688,-0.67138672,5.92041016,-4.15039062,1
0.44238281,0.58496094,0.65771484,0.06103516,4.33349609,-2.44140625,1
0.45605469,0.58496094,0.65136719,-3.60107422,5.12695312,-2.01416016,1
0.45556641,0.58056641,0.65136719,-4.94384766,6.65283203,-0.54931641,1
0.44775391,0.57177734,0.65087891,-1.89208984,5.73730469,1.953125,1
0.44873047,0.58007812,0.66943359,2.68554688,3.29589844,4.8828125,1
0.4453125,0.58203125,0.69921875,7.99560547,1.22070312,6.59179688,1
0.44775391,0.58740234,0.68457031,8.97216797,-1.64794922,8.11767578,1
0.45556641,0.58251953,0.67333984,10.49804688,-1.22070312,9.64355469,1
0.44970703,0.57666016,0.66748047,9.46044922,0.73242188,8.11767578,1
0.43896484,0.56298828,0.66894531,9.46044922,4.27246094,5.61523438,1
0.42529297,0.55761719,0.66748047,10.49804688,5.79833984,4.27246094,1
0.41455078,0.54931641,0.66503906,13.00048828,3.35693359,3.78417969,1
0.41162109,0.54541016,0.67041016,18.06640625,-0.73242188,3.66210938,1
0.42236328,0.55615234,0.66992188,22.82714844,-4.02832031,4.02832031,1
0.42675781,0.57470703,0.68652344,25.45166016,-7.14111328,5.12695312,1
0.41357422,0.57275391,0.70507812,27.34375,-12.26806641,6.77490234,1
0.44140625,0.58154297,0.67822266,29.90722656,-16.66259766,9.64355469,1
0.46289062,0.55810547,0.63769531,19.34814453,-17.08984375,21.85058594,1
0.46240234,0.60888672,0.65234375,35.27832031,-16.35742188,15.80810547,1
0.45947266,0.56152344,0.640625,46.26464844,-20.5078125,17.15087891,1
0.45263672,0.52587891,0.61425781,57.06787109,-22.52197266,27.16064453,1
0.44970703,0.57275391,0.62109375,67.62695312,-22.82714844,31.61621094,1
0.47509766,0.640625,0.61425781,69.09179688,-23.01025391,26.30615234,1
0.46875,0.6640625,0.61816406,58.65478516,-20.75195312,16.29638672,1
0.46289062,0.62255859,0.61669922,43.51806641,-14.16015625,13.42773438,1
0.49316406,0.63378906,0.59814453,29.78515625,-5.24902344,17.578125,1
0.51220703,0.72021484,0.60839844,16.17431641,-2.50244141,1.953125,1
0.49023438,0.66113281,0.60498047,2.01416016,-4.39453125,-5.79833984,1
0.48681641,0.62988281,0.61523438,-0.73242188,-4.21142578,-5.37109375,1
0.4921875,0.63378906,0.60253906,0.12207031,-5.24902344,-4.63867188,1
0.49121094,0.63330078,0.59130859,0.42724609,-6.46972656,-4.82177734,1
0.49707031,0.63330078,0.57666016,-1.34277344,-5.00488281,-4.94384766,1
0.48828125,0.62744141,0.57421875,-1.46484375,-3.23486328,-4.45556641,1
0.484375,0.61474609,0.57128906,0.79345703,-3.23486328,-3.90625,1
0.48632812,0.61035156,0.57324219,6.22558594,-4.45556641,-3.23486328,1
0.49023438,0.6171875,0.57373047,10.07080078,-5.00488281,-2.44140625,1
0.50097656,0.63330078,0.57910156,11.41357422,-3.66210938,-1.28173828,1
0.50683594,0.64501953,0.57226562,9.70458984,-0.36621094,-0.12207031,1
0.49316406,0.63964844,0.57177734,9.15527344,0.06103516,0.79345703,1
0.48095703,0.63378906,0.58056641,10.7421875,-2.38037109,1.89208984,1
0.47851562,0.63574219,0.58642578,11.16943359,-4.33349609,2.25830078,1
0.47900391,0.63671875,0.58349609,9.33837891,-4.51660156,1.89208984,1
0.48095703,0.63867188,0.57861328,6.46972656,-4.45556641,1.28173828,1
0.48828125,0.64355469,0.57666016,2.19726562,-4.33349609,0.61035156,1
0.49316406,0.640625,0.57470703,-2.25830078,-4.08935547,-0.24414062,1
0.49316406,0.63232422,0.57421875,-4.15039062,-3.66210938,-0.73242188,1
0.48925781,0.62841797,0.58007812,-3.23486328,-3.84521484,-0.73242188,1
0.48193359,0.625,0.58203125,-0.54931641,-4.76074219,-0.67138672,1
0.48730469,0.62988281,0.57714844,4.21142578,-4.69970703,0.12207031,1
0.49316406,0.64355469,0.56542969,6.40869141,-2.62451172,0.73242188,1
0.49707031,0.64453125,0.56201172,7.01904297,-1.15966797,1.22070312,1
0.49511719,0.63769531,0.57128906,8.48388672,-1.953125,1.89208984,1
0.48925781,0.62597656,0.58935547,13.91601562,-5.67626953,3.35693359,1
0.48632812,0.62207031,0.59179688,22.64404297,-9.64355469,5.67626953,1
0.48925781,0.63818359,0.57226562,26.30615234,-11.29150391,7.14111328,1
0.45898438,0.640625,0.5625,18.79882812,-14.52636719,2.25830078,1
0.49267578,0.65820312,0.55419922,12.81738281,-20.87402344,2.56347656,1
0.50585938,0.63623047,0.56884766,17.39501953,-20.26367188,3.78417969,1
0.49707031,0.64208984,0.56445312,19.53125,-20.81298828,4.39453125,1
0.47509766,0.63476562,0.56298828,12.39013672,-26.91650391,0.12207031,1
0.49316406,0.64746094,0.578125,8.60595703,-41.9921875,-2.01416016,1
0.50341797,0.63867188,0.58056641,5.43212891,-59.32617188,-4.69970703,1
0.51464844,0.64746094,0.54101562,13.30566406,-64.08691406,-2.38037109,1
0.53662109,0.65966797,0.50390625,25.75683594,-58.22753906,2.99072266,1
0.54833984,0.66796875,0.47216797,27.77099609,-47.05810547,5.00488281,1
0.55371094,0.67382812,0.46044922,22.33886719,-36.31591797,3.78417969,1
0.55371094,0.66552734,0.47607422,20.08056641,-29.35791016,2.99072266,1
0.54736328,0.65576172,0.4921875,22.21679688,-29.296875,3.60107422,1
0.54833984,0.64453125,0.51513672,29.72412109,-34.36279297,5.24902344,1
0.54492188,0.64306641,0.50292969,34.30175781,-39.48974609,4.57763672,1
0.53076172,0.64111328,0.48242188,36.86523438,-43.09082031,2.86865234,1
0.54492188,0.66455078,0.46875,37.84179688,-45.34912109,2.25830078,1
0.58056641,0.69873047,0.44824219,38.20800781,-45.28808594,4.15039062,1
0.56884766,0.6875,0.45556641,45.59326172,-45.04394531,8.30078125,1
0.54785156,0.66259766,0.47412109,60.24169922,-46.02050781,12.93945312,1
0.57324219,0.66601562,0.42626953,67.62695312,-49.98779297,15.19775391,1
0.60595703,0.68798828,0.37841797,69.3359375,-40.89355469,16.90673828,1
0.61230469,0.6953125,0.35888672,64.63623047,-31.37207031,16.47949219,1
0.60498047,0.66455078,0.34912109,62.13378906,-27.58789062,14.89257812,1
0.61230469,0.65087891,0.31445312,65.67382812,-21.78955078,13.30566406,1
0.64501953,0.70117188,0.26513672,65.06347656,-8.7890625,12.45117188,1
0.65283203,0.70556641,0.27246094,61.58447266,-5.55419922,18.24951172,1
0.6484375,0.69824219,0.30761719,78.18603516,-7.93457031,33.81347656,1
0.64013672,0.72998047,0.34082031,104.12597656,-5.06591797,35.27832031,1
0.59912109,0.67089844,0.35400391,101.07421875,-1.28173828,44.00634766,1
0.59033203,0.72851562,0.21923828,99.48730469,-17.70019531,33.08105469,1
0.68457031,0.71679688,0.23535156,95.45898438,-19.16503906,37.17041016,1
0.65087891,0.66259766,0.23535156,89.59960938,6.10351562,40.28320312,1
0.61083984,0.75097656,0.23876953,80.26123047,14.77050781,31.73828125,1
0.59960938,0.71875,0.27148438,71.47216797,1.52587891,26.91650391,1
0.63037109,0.70654297,0.26513672,65.61279297,0.73242188,25.57373047,1
0.63378906,0.67285156,0.24902344,62.98828125,3.84521484,28.3203125,1
0.64404297,0.70410156,0.25732422,67.93212891,6.53076172,35.40039062,1
0.65673828,0.71826172,0.26904297,76.41601562,7.99560547,38.69628906,1
0.64746094,0.6875,0.25488281,78.73535156,11.77978516,47.42431641,1
0.67675781,0.7265625,0.18945312,79.65087891,14.58740234,41.38183594,1
0.67919922,0.67822266,0.14404297,72.32666016,24.53613281,43.76220703,1
0.65771484,0.70507812,0.13134766,66.22314453,28.19824219,35.76660156,1
0.62597656,0.69824219,0.15283203,59.38720703,16.96777344,41.9921875,1
0.68945312,0.71240234,0.15136719,64.08691406,25.26855469,51.20849609,1
0.71875,0.703125,0.15820312,65.4296875,33.99658203,56.39648438,1
0.69775391,0.69091797,0.16259766,60.42480469,40.40527344,52.91748047,1
0.71435547,0.65087891,0.18017578,49.49951172,31.25,37.41455078,1
0.69287109,0.63769531,0.17529297,45.77636719,27.58789062,32.83691406,1
0.68505859,0.68652344,0.19775391,57.73925781,21.97265625,29.96826172,1
0.65722656,0.69970703,0.21191406,63.84277344,9.03320312,32.16552734,1
0.67578125,0.67333984,0.203125,64.94140625,-2.31933594,32.71484375,1
0.72900391,0.66894531,0.17626953,65.49072266,6.10351562,31.31103516,1
0.72119141,0.69238281,0.15820312,63.65966797,3.60107422,14.70947266,1
0.72119141,0.66455078,0.12841797,52.61230469,-5.31005859,-1.89208984,1
0.69775391,0.67724609,0.11328125,46.56982422,-5.18798828,-4.45556641,1
0.70263672,0.68652344,0.109375,44.73876953,-7.20214844,1.58691406,1
0.72070312,0.6640625,0.10644531,46.14257812,-7.99560547,7.20214844,1
0.73242188,0.65771484,0.10009766,48.21777344,-6.34765625,8.42285156,1
0.73291016,0.65820312,0.08837891,46.38671875,2.01416016,8.72802734,1
0.67285156,0.68994141,0.08740234,33.87451172,12.93945312,18.43261719,1
0.71972656,0.71435547,0.11279297,23.74267578,9.21630859,15.80810547,1
0.703125,0.68359375,0.14257812,17.76123047,2.68554688,13.12255859,1
0.70947266,0.65185547,0.15966797,28.56445312,-4.94384766,9.94873047,1
0.71777344,0.64892578,0.13964844,41.87011719,2.38037109,15.68603516,1
0.72363281,0.69238281,0.09570312,51.08642578,8.36181641,15.99121094,1
0.75488281,0.67773438,0.04638672,47.91259766,8.30078125,8.54492188,1
0.76318359,0.66259766,0.01904297,37.41455078,19.04296875,2.19726562,1
0.72851562,0.66943359,0.00732422,28.93066406,38.63525391,7.14111328,1
0.70947266,0.66552734,0.02490234,26.24511719,47.79052734,18.92089844,1
0.71386719,0.65673828,0.04248047,29.84619141,56.51855469,34.36279297,1
0.71484375,0.64990234,0.07470703,38.69628906,68.359375,50.84228516,1
0.69824219,0.63232422,0.09082031,44.18945312,63.17138672,63.78173828,1
0.76416016,0.65771484,0.10644531,53.52783203,41.25976562,65.61279297,1
0.76660156,0.64501953,0.09228516,64.08691406,37.90283203,67.07763672,1
0.78027344,0.64013672,0.08935547,64.81933594,31.73828125,63.04931641,1
0.76953125,0.62207031,0.0859375,54.99267578,28.38134766,53.89404297,1
0.67919922,0.60839844,0.37060547,42.90771484,-40.77148438,33.56933594,1
0.76611328,0.53027344,0.21826172,58.83789062,-69.09179688,22.15576172,1
0.80175781,0.62890625,0.19921875,95.58105469,-96.74072266,21.42333984,1
0.69140625,0.68066406,0.04199219,67.56591797,-127.50244141,14.09912109,1
0.49755859,0.51904297,-0.01660156,27.03857422,-115.72265625,-18.43261719,1
0.96289062,0.63085938,-0.02978516,15.31982422,-97.59521484,-13.91601562,1
0.95605469,0.69384766,-0.12158203,23.13232422,-87.76855469,-34.1796875,1
0.85107422,0.66162109,-0.08837891,21.30126953,-93.75,-44.921875,1
0.77978516,0.62304688,-0.06982422,30.63964844,-105.52978516,-38.20800781,1
0.72998047,0.61962891,-0.11083984,43.27392578,-100.40283203,-16.84570312,1
0.7265625,0.63085938,-0.15576172,46.14257812,-94.84863281,1.70898438,1
0.71728516,0.59960938,-0.15234375,45.34912109,-84.47265625,12.02392578,1
0.77392578,0.60839844,-0.1484375,30.70068359,-67.99316406,5.55419922,1
0.74707031,0.59667969,-0.12695312,32.28759766,-71.2890625,2.86865234,1
0.72509766,0.62353516,-0.13916016,37.35351562,-76.66015625,7.26318359,1
0.75390625,0.62988281,-0.15625,44.06738281,-89.72167969,11.77978516,1
0.78320312,0.62011719,-0.21777344,54.44335938,-94.36035156,12.63427734,1
0.79638672,0.61621094,-0.27832031,57.73925781,-87.34130859,7.50732422,1
0.81054688,0.62646484,-0.27929688,62.43896484,-88.01269531,1.09863281,1
0.70458984,0.58544922,-0.25244141,33.99658203,-63.4765625,-5.92041016,1
0.71191406,0.57128906,-0.17626953,20.01953125,-42.90771484,-6.28662109,1
0.72119141,0.57421875,-0.29394531,25.390625,-39.30664062,-5.49316406,1
0.74511719,0.59375,-0.26855469,49.86572266,-64.20898438,3.60107422,1
0.72119141,0.61132812,-0.31689453,56.03027344,-88.19580078,20.93505859,1
0.67675781,0.58935547,-0.34033203,43.15185547,-73.91357422,18.31054688,1
0.70605469,0.59912109,-0.31982422,37.41455078,-66.22314453,20.01953125,1
0.72265625,0.58203125,-0.37402344,27.28271484,-39.18457031,13.24462891,1
0.77587891,0.58349609,-0.39355469,27.83203125,-47.05810547,13.36669922,1
0.75634766,0.56591797,-0.39599609,35.52246094,-60.42480469,15.99121094,1
0.72412109,0.55761719,-0.40039062,41.50390625,-69.27490234,19.40917969,1
0.70703125,0.55761719,-0.39746094,33.26416016,-64.02587891,14.89257812,1
0.70263672,0.56298828,-0.39160156,25.75683594,-56.57958984,8.66699219,1
0.69824219,0.55712891,-0.39648438,25.93994141,-58.16650391,6.22558594,1
0.71191406,0.52734375,-0.38378906,29.296875,-41.44287109,2.44140625,1
0.72021484,0.52246094,-0.46386719,32.28759766,-25.69580078,-3.72314453,1
0.72998047,0.50537109,-0.51123047,39.48974609,-26.42822266,-9.15527344,1
0.70019531,0.47607422,-0.49560547,48.95019531,-19.04296875,-10.80322266,1
0.66162109,0.52685547,-0.51757812,50.65917969,-23.68164062,-9.09423828,1
0.66357422,0.52392578,-0.50341797,49.62158203,-31.43310547,1.28173828,1
0.57763672,0.45117188,-0.51464844,52.61230469,-57.12890625,42.41943359,1
0.68847656,0.46044922,-0.53222656,53.95507812,-70.25146484,53.7109375,1
0.79199219,0.48632812,-0.55761719,50.47607422,-54.01611328,36.86523438,1
0.75146484,0.46875,-0.60791016,53.95507812,-50.78125,23.31542969,1
0.72753906,0.4609375,-0.61181641,56.57958984,-51.94091797,22.33886719,1
0.67578125,0.44335938,-0.5546875,57.86132812,-66.22314453,41.07666016,1
0.65966797,0.45947266,-0.44287109,44.00634766,-74.70703125,79.52880859,1
0.68652344,0.51660156,-0.47314453,17.88330078,-73.30322266,104.30908203,1
0.69384766,0.57177734,-0.47753906,-5.92041016,-61.09619141,99.97558594,1
0.65136719,0.61181641,-0.4375,-14.09912109,-42.72460938,70.73974609,1
0.64648438,0.60791016,-0.41699219,-1.52587891,-20.87402344,22.52197266,1
